ExperimentName;Subject;Session;calibrage.DEVICE[Session];Chronos.BoxInfo;Clock.Information;DataFile.Basename;Display.RefreshRate;ExperimentVersion;Group;Hello.DEVICE;RandomSeed;RuntimeCapabilities;RuntimeVersion;RuntimeVersionExpected;SessionDate;SessionStartDateTimeUtc;SessionTime;StudioVersion;Block;calibrage.DEVICE[Block];EndTraining.DEVICE;Generalbloc;Generalbloc.Cycle;Generalbloc.Sample;Procedure[Block];Running[Block];TextDisplay1.DEVICE;TextDisplay2.DEVICE;TextTraining.DEVICE;time;VVInst.DEVICE[Block];Trial;correct;image;listVVTrial;listVVTrial.Cycle;listVVTrial.Sample;offset;Procedure[Trial];Running[Trial];SpatialTaskTraining;SpatialTaskTraining.Cycle;SpatialTaskTraining.Sample;VVInst.DEVICE[Trial];vvstimnoresp.ACC;vvstimnoresp.CRESP;vvstimnoresp.DurationError;vvstimnoresp.OnsetDelay;vvstimnoresp.OnsetTime;vvstimnoresp.OnsetToOnsetTime;vvstimnoresp.RESP;vvstimnoresp.RT;vvstimnoresp.RTTime;vvstimresp1.ACC;vvstimresp1.CRESP;vvstimresp1.DEVICE;vvstimresp1.DurationError;vvstimresp1.OnsetDelay;vvstimresp1.OnsetTime;vvstimresp1.OnsetToOnsetTime;vvstimresp1.RESP;vvstimresp1.RT;vvstimresp1.RTTime;vvstimresp2.ACC;vvstimresp2.CRESP;vvstimresp2.DEVICE;vvstimresp2.DurationError;vvstimresp2.OnsetDelay;vvstimresp2.OnsetTime;vvstimresp2.OnsetToOnsetTime;vvstimresp2.RESP;vvstimresp2.RT;vvstimresp2.RTTime;SubTrial;LISTVVRANDOM1;LISTVVRANDOM1.Cycle;LISTVVRANDOM1.Sample;LISTVVRANDOM2;Procedure[SubTrial];Running[SubTrial];VVR;VVRANDOM;VVRANDOMRESP.ACC;VVRANDOMRESP.CRESP;VVRANDOMRESP.DEVICE;VVRANDOMRESP.DurationError;VVRANDOMRESP.OnsetDelay;VVRANDOMRESP.OnsetTime;VVRANDOMRESP.OnsetToOnsetTime;VVRANDOMRESP.RESP;VVRANDOMRESP.RT;VVRANDOMRESP.RTTime
EXP2.2_290421;121;1;Chronos;<ChronosDeviceInfo><FriendlyName>MyChronos</FriendlyName><DeviceIndex>1</DeviceIndex><SerialNumber>CHR-04301-1186</SerialNumber><EBNVersion>3.0.3.80</EBNVersion><FirmwareVersion>1.33</FirmwareVersion><APIVersion>1.33</APIVersion><USBHostControllerVersion>2.0</USBHostControllerVersion><USBConnectionRoute>USB#ROOT_HUB20#4&f63975&0#{f18a0e88-c30c-11d0-8815-00a0c906bed8} + USB#VID_8087&PID_0024#5&365d106a&0&1#{f18a0e88-c30c-11d0-8815-00a0c906bed8}(1) + VID_2266&PID_0007(2)</USBConnectionRoute></ChronosDeviceInfo>;"<?xml version=""1.0""?>\n<Clock xmlns:dt=""urn:schemas-microsoft-com:datatypes""><Description dt:dt=""string"">E-Prime Primary Realtime Clock</Description><StartTime><Timestamp dt:dt=""int"">0</Timestamp><DateUtc dt:dt=""string"">2013-09-14T06:48:31Z</DateUtc></StartTime><FrequencyChanges><FrequencyChange><Frequency dt:dt=""r8"">3312832</Frequency><Timestamp dt:dt=""r8"">584023471147</Timestamp><Current dt:dt=""r8"">0</Current><DateUtc dt:dt=""string"">2013-09-14T06:48:31Z</DateUtc></FrequencyChange></FrequencyChanges></Clock>\n";EXP2.2_290421-121-1;59.951;1.0.0.367;1;Chronos;-91496789;Full;3.0.3.80;3.0.3.80;09-14-2013;14/09/2013 06:48;08:48:31;3.0.3.82;1;Chronos;Chronos;1;1;1;Training;Generalbloc;;;Chronos;pretest;;1;;;;;;;TRAININGVV;SpatialTaskTraining;1;1;1;Chronos;;;;;;;;;;;;;;;;;;;;;;;;;;;;;;1;1;1;1;1;blocVVstimTraining;LISTVVRANDOM1;VV_110521/875.png;VV_110521/880.png;0;;Chronos;-999999;1;199743;0;5;1812;201555
EXP2.2_290421;121;1;Chronos;<ChronosDeviceInfo><FriendlyName>MyChronos</FriendlyName><DeviceIndex>1</DeviceIndex><SerialNumber>CHR-04301-1186</SerialNumber><EBNVersion>3.0.3.80</EBNVersion><FirmwareVersion>1.33</FirmwareVersion><APIVersion>1.33</APIVersion><USBHostControllerVersion>2.0</USBHostControllerVersion><USBConnectionRoute>USB#ROOT_HUB20#4&f63975&0#{f18a0e88-c30c-11d0-8815-00a0c906bed8} + USB#VID_8087&PID_0024#5&365d106a&0&1#{f18a0e88-c30c-11d0-8815-00a0c906bed8}(1) + VID_2266&PID_0007(2)</USBConnectionRoute></ChronosDeviceInfo>;"<?xml version=""1.0""?>\n<Clock xmlns:dt=""urn:schemas-microsoft-com:datatypes""><Description dt:dt=""string"">E-Prime Primary Realtime Clock</Description><StartTime><Timestamp dt:dt=""int"">0</Timestamp><DateUtc dt:dt=""string"">2013-09-14T06:48:31Z</DateUtc></StartTime><FrequencyChanges><FrequencyChange><Frequency dt:dt=""r8"">3312832</Frequency><Timestamp dt:dt=""r8"">584023471147</Timestamp><Current dt:dt=""r8"">0</Current><DateUtc dt:dt=""string"">2013-09-14T06:48:31Z</DateUtc></FrequencyChange></FrequencyChanges></Clock>\n";EXP2.2_290421-121-1;59.951;1.0.0.367;1;Chronos;-91496789;Full;3.0.3.80;3.0.3.80;09-14-2013;14/09/2013 06:48;08:48:31;3.0.3.82;1;Chronos;Chronos;1;1;1;Training;Generalbloc;;;Chronos;pretest;;1;;;;;;;TRAININGVV;SpatialTaskTraining;1;1;1;Chronos;;;;;;;;;;;;;;;;;;;;;;;;;;;;;;2;1;1;2;3;blocVVstimTraining;LISTVVRANDOM1;VV_110521/885.png;VV_110521/890.png;0;;Chronos;-999999;1;203596;0;5;428;204024
EXP2.2_290421;121;1;Chronos;<ChronosDeviceInfo><FriendlyName>MyChronos</FriendlyName><DeviceIndex>1</DeviceIndex><SerialNumber>CHR-04301-1186</SerialNumber><EBNVersion>3.0.3.80</EBNVersion><FirmwareVersion>1.33</FirmwareVersion><APIVersion>1.33</APIVersion><USBHostControllerVersion>2.0</USBHostControllerVersion><USBConnectionRoute>USB#ROOT_HUB20#4&f63975&0#{f18a0e88-c30c-11d0-8815-00a0c906bed8} + USB#VID_8087&PID_0024#5&365d106a&0&1#{f18a0e88-c30c-11d0-8815-00a0c906bed8}(1) + VID_2266&PID_0007(2)</USBConnectionRoute></ChronosDeviceInfo>;"<?xml version=""1.0""?>\n<Clock xmlns:dt=""urn:schemas-microsoft-com:datatypes""><Description dt:dt=""string"">E-Prime Primary Realtime Clock</Description><StartTime><Timestamp dt:dt=""int"">0</Timestamp><DateUtc dt:dt=""string"">2013-09-14T06:48:31Z</DateUtc></StartTime><FrequencyChanges><FrequencyChange><Frequency dt:dt=""r8"">3312832</Frequency><Timestamp dt:dt=""r8"">584023471147</Timestamp><Current dt:dt=""r8"">0</Current><DateUtc dt:dt=""string"">2013-09-14T06:48:31Z</DateUtc></FrequencyChange></FrequencyChanges></Clock>\n";EXP2.2_290421-121-1;59.951;1.0.0.367;1;Chronos;-91496789;Full;3.0.3.80;3.0.3.80;09-14-2013;14/09/2013 06:48;08:48:31;3.0.3.82;1;Chronos;Chronos;1;1;1;Training;Generalbloc;;;Chronos;pretest;;1;;;;;;;TRAININGVV;SpatialTaskTraining;1;1;1;Chronos;;;;;;;;;;;;;;;;;;;;;;;;;;;;;;3;1;1;3;5;blocVVstimTraining;LISTVVRANDOM1;VV_110521/895.png;VV_110521/900.png;0;;Chronos;-999999;1;206048;0;5;474;206522
EXP2.2_290421;121;1;Chronos;<ChronosDeviceInfo><FriendlyName>MyChronos</FriendlyName><DeviceIndex>1</DeviceIndex><SerialNumber>CHR-04301-1186</SerialNumber><EBNVersion>3.0.3.80</EBNVersion><FirmwareVersion>1.33</FirmwareVersion><APIVersion>1.33</APIVersion><USBHostControllerVersion>2.0</USBHostControllerVersion><USBConnectionRoute>USB#ROOT_HUB20#4&f63975&0#{f18a0e88-c30c-11d0-8815-00a0c906bed8} + USB#VID_8087&PID_0024#5&365d106a&0&1#{f18a0e88-c30c-11d0-8815-00a0c906bed8}(1) + VID_2266&PID_0007(2)</USBConnectionRoute></ChronosDeviceInfo>;"<?xml version=""1.0""?>\n<Clock xmlns:dt=""urn:schemas-microsoft-com:datatypes""><Description dt:dt=""string"">E-Prime Primary Realtime Clock</Description><StartTime><Timestamp dt:dt=""int"">0</Timestamp><DateUtc dt:dt=""string"">2013-09-14T06:48:31Z</DateUtc></StartTime><FrequencyChanges><FrequencyChange><Frequency dt:dt=""r8"">3312832</Frequency><Timestamp dt:dt=""r8"">584023471147</Timestamp><Current dt:dt=""r8"">0</Current><DateUtc dt:dt=""string"">2013-09-14T06:48:31Z</DateUtc></FrequencyChange></FrequencyChanges></Clock>\n";EXP2.2_290421-121-1;59.951;1.0.0.367;1;Chronos;-91496789;Full;3.0.3.80;3.0.3.80;09-14-2013;14/09/2013 06:48;08:48:31;3.0.3.82;1;Chronos;Chronos;1;1;1;Training;Generalbloc;;;Chronos;pretest;;1;;;;;;;TRAININGVV;SpatialTaskTraining;1;1;1;Chronos;;;;;;;;;;;;;;;;;;;;;;;;;;;;;;4;1;1;4;7;blocVVstimTraining;LISTVVRANDOM1;VV_110521/905.png;VV_110521/910.png;0;;Chronos;-999999;1;208550;0;5;386;208936
EXP2.2_290421;121;1;Chronos;<ChronosDeviceInfo><FriendlyName>MyChronos</FriendlyName><DeviceIndex>1</DeviceIndex><SerialNumber>CHR-04301-1186</SerialNumber><EBNVersion>3.0.3.80</EBNVersion><FirmwareVersion>1.33</FirmwareVersion><APIVersion>1.33</APIVersion><USBHostControllerVersion>2.0</USBHostControllerVersion><USBConnectionRoute>USB#ROOT_HUB20#4&f63975&0#{f18a0e88-c30c-11d0-8815-00a0c906bed8} + USB#VID_8087&PID_0024#5&365d106a&0&1#{f18a0e88-c30c-11d0-8815-00a0c906bed8}(1) + VID_2266&PID_0007(2)</USBConnectionRoute></ChronosDeviceInfo>;"<?xml version=""1.0""?>\n<Clock xmlns:dt=""urn:schemas-microsoft-com:datatypes""><Description dt:dt=""string"">E-Prime Primary Realtime Clock</Description><StartTime><Timestamp dt:dt=""int"">0</Timestamp><DateUtc dt:dt=""string"">2013-09-14T06:48:31Z</DateUtc></StartTime><FrequencyChanges><FrequencyChange><Frequency dt:dt=""r8"">3312832</Frequency><Timestamp dt:dt=""r8"">584023471147</Timestamp><Current dt:dt=""r8"">0</Current><DateUtc dt:dt=""string"">2013-09-14T06:48:31Z</DateUtc></FrequencyChange></FrequencyChanges></Clock>\n";EXP2.2_290421-121-1;59.951;1.0.0.367;1;Chronos;-91496789;Full;3.0.3.80;3.0.3.80;09-14-2013;14/09/2013 06:48;08:48:31;3.0.3.82;1;Chronos;Chronos;1;1;1;Training;Generalbloc;;;Chronos;pretest;;1;;;;;;;TRAININGVV;SpatialTaskTraining;1;1;1;Chronos;;;;;;;;;;;;;;;;;;;;;;;;;;;;;;5;1;1;5;9;blocVVstimTraining;LISTVVRANDOM1;VV_110521/915.png;VV_110521/920.png;0;;Chronos;-999999;1;210969;0;5;283;211252
EXP2.2_290421;121;1;Chronos;<ChronosDeviceInfo><FriendlyName>MyChronos</FriendlyName><DeviceIndex>1</DeviceIndex><SerialNumber>CHR-04301-1186</SerialNumber><EBNVersion>3.0.3.80</EBNVersion><FirmwareVersion>1.33</FirmwareVersion><APIVersion>1.33</APIVersion><USBHostControllerVersion>2.0</USBHostControllerVersion><USBConnectionRoute>USB#ROOT_HUB20#4&f63975&0#{f18a0e88-c30c-11d0-8815-00a0c906bed8} + USB#VID_8087&PID_0024#5&365d106a&0&1#{f18a0e88-c30c-11d0-8815-00a0c906bed8}(1) + VID_2266&PID_0007(2)</USBConnectionRoute></ChronosDeviceInfo>;"<?xml version=""1.0""?>\n<Clock xmlns:dt=""urn:schemas-microsoft-com:datatypes""><Description dt:dt=""string"">E-Prime Primary Realtime Clock</Description><StartTime><Timestamp dt:dt=""int"">0</Timestamp><DateUtc dt:dt=""string"">2013-09-14T06:48:31Z</DateUtc></StartTime><FrequencyChanges><FrequencyChange><Frequency dt:dt=""r8"">3312832</Frequency><Timestamp dt:dt=""r8"">584023471147</Timestamp><Current dt:dt=""r8"">0</Current><DateUtc dt:dt=""string"">2013-09-14T06:48:31Z</DateUtc></FrequencyChange></FrequencyChanges></Clock>\n";EXP2.2_290421-121-1;59.951;1.0.0.367;1;Chronos;-91496789;Full;3.0.3.80;3.0.3.80;09-14-2013;14/09/2013 06:48;08:48:31;3.0.3.82;1;Chronos;Chronos;1;1;1;Training;Generalbloc;;;Chronos;pretest;;1;;;;;;;TRAININGVV;SpatialTaskTraining;1;1;1;Chronos;;;;;;;;;;;;;;;;;;;;;;;;;;;;;;6;1;1;6;11;blocVVstimTraining;LISTVVRANDOM1;VV_110521/925.png;VV_110521/875.png;0;;Chronos;-999999;0;213287;0;5;1522;214809
EXP2.2_290421;121;1;Chronos;<ChronosDeviceInfo><FriendlyName>MyChronos</FriendlyName><DeviceIndex>1</DeviceIndex><SerialNumber>CHR-04301-1186</SerialNumber><EBNVersion>3.0.3.80</EBNVersion><FirmwareVersion>1.33</FirmwareVersion><APIVersion>1.33</APIVersion><USBHostControllerVersion>2.0</USBHostControllerVersion><USBConnectionRoute>USB#ROOT_HUB20#4&f63975&0#{f18a0e88-c30c-11d0-8815-00a0c906bed8} + USB#VID_8087&PID_0024#5&365d106a&0&1#{f18a0e88-c30c-11d0-8815-00a0c906bed8}(1) + VID_2266&PID_0007(2)</USBConnectionRoute></ChronosDeviceInfo>;"<?xml version=""1.0""?>\n<Clock xmlns:dt=""urn:schemas-microsoft-com:datatypes""><Description dt:dt=""string"">E-Prime Primary Realtime Clock</Description><StartTime><Timestamp dt:dt=""int"">0</Timestamp><DateUtc dt:dt=""string"">2013-09-14T06:48:31Z</DateUtc></StartTime><FrequencyChanges><FrequencyChange><Frequency dt:dt=""r8"">3312832</Frequency><Timestamp dt:dt=""r8"">584023471147</Timestamp><Current dt:dt=""r8"">0</Current><DateUtc dt:dt=""string"">2013-09-14T06:48:31Z</DateUtc></FrequencyChange></FrequencyChanges></Clock>\n";EXP2.2_290421-121-1;59.951;1.0.0.367;1;Chronos;-91496789;Full;3.0.3.80;3.0.3.80;09-14-2013;14/09/2013 06:48;08:48:31;3.0.3.82;1;Chronos;Chronos;1;1;1;Training;Generalbloc;;;Chronos;pretest;;1;;;;;;;TRAININGVV;SpatialTaskTraining;1;1;1;Chronos;;;;;;;;;;;;;;;;;;;;;;;;;;;;;;7;1;1;7;2;blocVVstimTraining;LISTVVRANDOM1;VV_110521/880.png;VV_110521/885.png;0;;Chronos;-999999;0;216840;0;5;450;217290
EXP2.2_290421;121;1;Chronos;<ChronosDeviceInfo><FriendlyName>MyChronos</FriendlyName><DeviceIndex>1</DeviceIndex><SerialNumber>CHR-04301-1186</SerialNumber><EBNVersion>3.0.3.80</EBNVersion><FirmwareVersion>1.33</FirmwareVersion><APIVersion>1.33</APIVersion><USBHostControllerVersion>2.0</USBHostControllerVersion><USBConnectionRoute>USB#ROOT_HUB20#4&f63975&0#{f18a0e88-c30c-11d0-8815-00a0c906bed8} + USB#VID_8087&PID_0024#5&365d106a&0&1#{f18a0e88-c30c-11d0-8815-00a0c906bed8}(1) + VID_2266&PID_0007(2)</USBConnectionRoute></ChronosDeviceInfo>;"<?xml version=""1.0""?>\n<Clock xmlns:dt=""urn:schemas-microsoft-com:datatypes""><Description dt:dt=""string"">E-Prime Primary Realtime Clock</Description><StartTime><Timestamp dt:dt=""int"">0</Timestamp><DateUtc dt:dt=""string"">2013-09-14T06:48:31Z</DateUtc></StartTime><FrequencyChanges><FrequencyChange><Frequency dt:dt=""r8"">3312832</Frequency><Timestamp dt:dt=""r8"">584023471147</Timestamp><Current dt:dt=""r8"">0</Current><DateUtc dt:dt=""string"">2013-09-14T06:48:31Z</DateUtc></FrequencyChange></FrequencyChanges></Clock>\n";EXP2.2_290421-121-1;59.951;1.0.0.367;1;Chronos;-91496789;Full;3.0.3.80;3.0.3.80;09-14-2013;14/09/2013 06:48;08:48:31;3.0.3.82;1;Chronos;Chronos;1;1;1;Training;Generalbloc;;;Chronos;pretest;;1;;;;;;;TRAININGVV;SpatialTaskTraining;1;1;1;Chronos;;;;;;;;;;;;;;;;;;;;;;;;;;;;;;8;1;1;8;4;blocVVstimTraining;LISTVVRANDOM1;VV_110521/890.png;VV_110521/895.png;0;;Chronos;-999999;0;219325;0;5;327;219652
EXP2.2_290421;121;1;Chronos;<ChronosDeviceInfo><FriendlyName>MyChronos</FriendlyName><DeviceIndex>1</DeviceIndex><SerialNumber>CHR-04301-1186</SerialNumber><EBNVersion>3.0.3.80</EBNVersion><FirmwareVersion>1.33</FirmwareVersion><APIVersion>1.33</APIVersion><USBHostControllerVersion>2.0</USBHostControllerVersion><USBConnectionRoute>USB#ROOT_HUB20#4&f63975&0#{f18a0e88-c30c-11d0-8815-00a0c906bed8} + USB#VID_8087&PID_0024#5&365d106a&0&1#{f18a0e88-c30c-11d0-8815-00a0c906bed8}(1) + VID_2266&PID_0007(2)</USBConnectionRoute></ChronosDeviceInfo>;"<?xml version=""1.0""?>\n<Clock xmlns:dt=""urn:schemas-microsoft-com:datatypes""><Description dt:dt=""string"">E-Prime Primary Realtime Clock</Description><StartTime><Timestamp dt:dt=""int"">0</Timestamp><DateUtc dt:dt=""string"">2013-09-14T06:48:31Z</DateUtc></StartTime><FrequencyChanges><FrequencyChange><Frequency dt:dt=""r8"">3312832</Frequency><Timestamp dt:dt=""r8"">584023471147</Timestamp><Current dt:dt=""r8"">0</Current><DateUtc dt:dt=""string"">2013-09-14T06:48:31Z</DateUtc></FrequencyChange></FrequencyChanges></Clock>\n";EXP2.2_290421-121-1;59.951;1.0.0.367;1;Chronos;-91496789;Full;3.0.3.80;3.0.3.80;09-14-2013;14/09/2013 06:48;08:48:31;3.0.3.82;1;Chronos;Chronos;1;1;1;Training;Generalbloc;;;Chronos;pretest;;1;;;;;;;TRAININGVV;SpatialTaskTraining;1;1;1;Chronos;;;;;;;;;;;;;;;;;;;;;;;;;;;;;;9;1;1;9;6;blocVVstimTraining;LISTVVRANDOM1;VV_110521/900.png;VV_110521/905.png;0;;Chronos;-999999;0;221677;0;5;95;221772
EXP2.2_290421;121;1;Chronos;<ChronosDeviceInfo><FriendlyName>MyChronos</FriendlyName><DeviceIndex>1</DeviceIndex><SerialNumber>CHR-04301-1186</SerialNumber><EBNVersion>3.0.3.80</EBNVersion><FirmwareVersion>1.33</FirmwareVersion><APIVersion>1.33</APIVersion><USBHostControllerVersion>2.0</USBHostControllerVersion><USBConnectionRoute>USB#ROOT_HUB20#4&f63975&0#{f18a0e88-c30c-11d0-8815-00a0c906bed8} + USB#VID_8087&PID_0024#5&365d106a&0&1#{f18a0e88-c30c-11d0-8815-00a0c906bed8}(1) + VID_2266&PID_0007(2)</USBConnectionRoute></ChronosDeviceInfo>;"<?xml version=""1.0""?>\n<Clock xmlns:dt=""urn:schemas-microsoft-com:datatypes""><Description dt:dt=""string"">E-Prime Primary Realtime Clock</Description><StartTime><Timestamp dt:dt=""int"">0</Timestamp><DateUtc dt:dt=""string"">2013-09-14T06:48:31Z</DateUtc></StartTime><FrequencyChanges><FrequencyChange><Frequency dt:dt=""r8"">3312832</Frequency><Timestamp dt:dt=""r8"">584023471147</Timestamp><Current dt:dt=""r8"">0</Current><DateUtc dt:dt=""string"">2013-09-14T06:48:31Z</DateUtc></FrequencyChange></FrequencyChanges></Clock>\n";EXP2.2_290421-121-1;59.951;1.0.0.367;1;Chronos;-91496789;Full;3.0.3.80;3.0.3.80;09-14-2013;14/09/2013 06:48;08:48:31;3.0.3.82;1;Chronos;Chronos;1;1;1;Training;Generalbloc;;;Chronos;pretest;;1;;;;;;;TRAININGVV;SpatialTaskTraining;1;1;1;Chronos;;;;;;;;;;;;;;;;;;;;;;;;;;;;;;10;1;1;10;8;blocVVstimTraining;LISTVVRANDOM1;VV_110521/910.png;VV_110521/915.png;0;;Chronos;-999999;1;223796;0;5;357;224153
EXP2.2_290421;121;1;Chronos;<ChronosDeviceInfo><FriendlyName>MyChronos</FriendlyName><DeviceIndex>1</DeviceIndex><SerialNumber>CHR-04301-1186</SerialNumber><EBNVersion>3.0.3.80</EBNVersion><FirmwareVersion>1.33</FirmwareVersion><APIVersion>1.33</APIVersion><USBHostControllerVersion>2.0</USBHostControllerVersion><USBConnectionRoute>USB#ROOT_HUB20#4&f63975&0#{f18a0e88-c30c-11d0-8815-00a0c906bed8} + USB#VID_8087&PID_0024#5&365d106a&0&1#{f18a0e88-c30c-11d0-8815-00a0c906bed8}(1) + VID_2266&PID_0007(2)</USBConnectionRoute></ChronosDeviceInfo>;"<?xml version=""1.0""?>\n<Clock xmlns:dt=""urn:schemas-microsoft-com:datatypes""><Description dt:dt=""string"">E-Prime Primary Realtime Clock</Description><StartTime><Timestamp dt:dt=""int"">0</Timestamp><DateUtc dt:dt=""string"">2013-09-14T06:48:31Z</DateUtc></StartTime><FrequencyChanges><FrequencyChange><Frequency dt:dt=""r8"">3312832</Frequency><Timestamp dt:dt=""r8"">584023471147</Timestamp><Current dt:dt=""r8"">0</Current><DateUtc dt:dt=""string"">2013-09-14T06:48:31Z</DateUtc></FrequencyChange></FrequencyChanges></Clock>\n";EXP2.2_290421-121-1;59.951;1.0.0.367;1;Chronos;-91496789;Full;3.0.3.80;3.0.3.80;09-14-2013;14/09/2013 06:48;08:48:31;3.0.3.82;1;Chronos;Chronos;1;1;1;Training;Generalbloc;;;Chronos;pretest;;1;;;;;;;TRAININGVV;SpatialTaskTraining;1;1;1;Chronos;;;;;;;;;;;;;;;;;;;;;;;;;;;;;;11;1;1;11;10;blocVVstimTraining;LISTVVRANDOM1;VV_110521/920.png;VV_110521/925.png;0;;Chronos;-999999;0;226181;0;5;181;226362
EXP2.2_290421;121;1;Chronos;<ChronosDeviceInfo><FriendlyName>MyChronos</FriendlyName><DeviceIndex>1</DeviceIndex><SerialNumber>CHR-04301-1186</SerialNumber><EBNVersion>3.0.3.80</EBNVersion><FirmwareVersion>1.33</FirmwareVersion><APIVersion>1.33</APIVersion><USBHostControllerVersion>2.0</USBHostControllerVersion><USBConnectionRoute>USB#ROOT_HUB20#4&f63975&0#{f18a0e88-c30c-11d0-8815-00a0c906bed8} + USB#VID_8087&PID_0024#5&365d106a&0&1#{f18a0e88-c30c-11d0-8815-00a0c906bed8}(1) + VID_2266&PID_0007(2)</USBConnectionRoute></ChronosDeviceInfo>;"<?xml version=""1.0""?>\n<Clock xmlns:dt=""urn:schemas-microsoft-com:datatypes""><Description dt:dt=""string"">E-Prime Primary Realtime Clock</Description><StartTime><Timestamp dt:dt=""int"">0</Timestamp><DateUtc dt:dt=""string"">2013-09-14T06:48:31Z</DateUtc></StartTime><FrequencyChanges><FrequencyChange><Frequency dt:dt=""r8"">3312832</Frequency><Timestamp dt:dt=""r8"">584023471147</Timestamp><Current dt:dt=""r8"">0</Current><DateUtc dt:dt=""string"">2013-09-14T06:48:31Z</DateUtc></FrequencyChange></FrequencyChanges></Clock>\n";EXP2.2_290421-121-1;59.951;1.0.0.367;1;Chronos;-91496789;Full;3.0.3.80;3.0.3.80;09-14-2013;14/09/2013 06:48;08:48:31;3.0.3.82;1;Chronos;Chronos;1;1;1;Training;Generalbloc;;;Chronos;pretest;;1;;;;;;;TRAININGVV;SpatialTaskTraining;1;1;1;Chronos;;;;;;;;;;;;;;;;;;;;;;;;;;;;;;12;1;1;12;1;blocVVstimTraining;LISTVVRANDOM1;VV_110521/875.png;VV_110521/880.png;0;;Chronos;-999999;1;228400;0;1;1100;229500
EXP2.2_290421;121;1;Chronos;<ChronosDeviceInfo><FriendlyName>MyChronos</FriendlyName><DeviceIndex>1</DeviceIndex><SerialNumber>CHR-04301-1186</SerialNumber><EBNVersion>3.0.3.80</EBNVersion><FirmwareVersion>1.33</FirmwareVersion><APIVersion>1.33</APIVersion><USBHostControllerVersion>2.0</USBHostControllerVersion><USBConnectionRoute>USB#ROOT_HUB20#4&f63975&0#{f18a0e88-c30c-11d0-8815-00a0c906bed8} + USB#VID_8087&PID_0024#5&365d106a&0&1#{f18a0e88-c30c-11d0-8815-00a0c906bed8}(1) + VID_2266&PID_0007(2)</USBConnectionRoute></ChronosDeviceInfo>;"<?xml version=""1.0""?>\n<Clock xmlns:dt=""urn:schemas-microsoft-com:datatypes""><Description dt:dt=""string"">E-Prime Primary Realtime Clock</Description><StartTime><Timestamp dt:dt=""int"">0</Timestamp><DateUtc dt:dt=""string"">2013-09-14T06:48:31Z</DateUtc></StartTime><FrequencyChanges><FrequencyChange><Frequency dt:dt=""r8"">3312832</Frequency><Timestamp dt:dt=""r8"">584023471147</Timestamp><Current dt:dt=""r8"">0</Current><DateUtc dt:dt=""string"">2013-09-14T06:48:31Z</DateUtc></FrequencyChange></FrequencyChanges></Clock>\n";EXP2.2_290421-121-1;59.951;1.0.0.367;1;Chronos;-91496789;Full;3.0.3.80;3.0.3.80;09-14-2013;14/09/2013 06:48;08:48:31;3.0.3.82;2;Chronos;;2;1;2;TESTVV;Generalbloc;;;;pretest;Chronos;1;5;VV_110521/915.png;9;1;1;15;blocVVstim;listVVTrial;;;;Chronos;0;;0;1;302194;200;;0;0;1;5;Chronos;0;0;302394;300;5;653;303047;1;5;Chronos;1;0;302694;0;5;353;303047;;;;;;;;;;;;;;;;;;;
EXP2.2_290421;121;1;Chronos;<ChronosDeviceInfo><FriendlyName>MyChronos</FriendlyName><DeviceIndex>1</DeviceIndex><SerialNumber>CHR-04301-1186</SerialNumber><EBNVersion>3.0.3.80</EBNVersion><FirmwareVersion>1.33</FirmwareVersion><APIVersion>1.33</APIVersion><USBHostControllerVersion>2.0</USBHostControllerVersion><USBConnectionRoute>USB#ROOT_HUB20#4&f63975&0#{f18a0e88-c30c-11d0-8815-00a0c906bed8} + USB#VID_8087&PID_0024#5&365d106a&0&1#{f18a0e88-c30c-11d0-8815-00a0c906bed8}(1) + VID_2266&PID_0007(2)</USBConnectionRoute></ChronosDeviceInfo>;"<?xml version=""1.0""?>\n<Clock xmlns:dt=""urn:schemas-microsoft-com:datatypes""><Description dt:dt=""string"">E-Prime Primary Realtime Clock</Description><StartTime><Timestamp dt:dt=""int"">0</Timestamp><DateUtc dt:dt=""string"">2013-09-14T06:48:31Z</DateUtc></StartTime><FrequencyChanges><FrequencyChange><Frequency dt:dt=""r8"">3312832</Frequency><Timestamp dt:dt=""r8"">584023471147</Timestamp><Current dt:dt=""r8"">0</Current><DateUtc dt:dt=""string"">2013-09-14T06:48:31Z</DateUtc></FrequencyChange></FrequencyChanges></Clock>\n";EXP2.2_290421-121-1;59.951;1.0.0.367;1;Chronos;-91496789;Full;3.0.3.80;3.0.3.80;09-14-2013;14/09/2013 06:48;08:48:31;3.0.3.82;2;Chronos;;2;1;2;TESTVV;Generalbloc;;;;pretest;Chronos;2;15;VV_110521/900.png;6;1;2;0;blocVVstim;listVVTrial;;;;Chronos;0;;0;1;304579;201;;0;0;0;15;Chronos;0;1;304780;300;5;825;305605;0;15;Chronos;0;0;305080;0;5;525;305605;;;;;;;;;;;;;;;;;;;
EXP2.2_290421;121;1;Chronos;<ChronosDeviceInfo><FriendlyName>MyChronos</FriendlyName><DeviceIndex>1</DeviceIndex><SerialNumber>CHR-04301-1186</SerialNumber><EBNVersion>3.0.3.80</EBNVersion><FirmwareVersion>1.33</FirmwareVersion><APIVersion>1.33</APIVersion><USBHostControllerVersion>2.0</USBHostControllerVersion><USBConnectionRoute>USB#ROOT_HUB20#4&f63975&0#{f18a0e88-c30c-11d0-8815-00a0c906bed8} + USB#VID_8087&PID_0024#5&365d106a&0&1#{f18a0e88-c30c-11d0-8815-00a0c906bed8}(1) + VID_2266&PID_0007(2)</USBConnectionRoute></ChronosDeviceInfo>;"<?xml version=""1.0""?>\n<Clock xmlns:dt=""urn:schemas-microsoft-com:datatypes""><Description dt:dt=""string"">E-Prime Primary Realtime Clock</Description><StartTime><Timestamp dt:dt=""int"">0</Timestamp><DateUtc dt:dt=""string"">2013-09-14T06:48:31Z</DateUtc></StartTime><FrequencyChanges><FrequencyChange><Frequency dt:dt=""r8"">3312832</Frequency><Timestamp dt:dt=""r8"">584023471147</Timestamp><Current dt:dt=""r8"">0</Current><DateUtc dt:dt=""string"">2013-09-14T06:48:31Z</DateUtc></FrequencyChange></FrequencyChanges></Clock>\n";EXP2.2_290421-121-1;59.951;1.0.0.367;1;Chronos;-91496789;Full;3.0.3.80;3.0.3.80;09-14-2013;14/09/2013 06:48;08:48:31;3.0.3.82;2;Chronos;;2;1;2;TESTVV;Generalbloc;;;;pretest;Chronos;3;5;VV_110521/915.png;9;1;3;15;blocVVstim;listVVTrial;;;;Chronos;0;;1;1;307131;201;;0;0;1;5;Chronos;0;1;307332;300;5;754;308086;1;5;Chronos;0;0;307632;0;5;454;308086;;;;;;;;;;;;;;;;;;;
EXP2.2_290421;121;1;Chronos;<ChronosDeviceInfo><FriendlyName>MyChronos</FriendlyName><DeviceIndex>1</DeviceIndex><SerialNumber>CHR-04301-1186</SerialNumber><EBNVersion>3.0.3.80</EBNVersion><FirmwareVersion>1.33</FirmwareVersion><APIVersion>1.33</APIVersion><USBHostControllerVersion>2.0</USBHostControllerVersion><USBConnectionRoute>USB#ROOT_HUB20#4&f63975&0#{f18a0e88-c30c-11d0-8815-00a0c906bed8} + USB#VID_8087&PID_0024#5&365d106a&0&1#{f18a0e88-c30c-11d0-8815-00a0c906bed8}(1) + VID_2266&PID_0007(2)</USBConnectionRoute></ChronosDeviceInfo>;"<?xml version=""1.0""?>\n<Clock xmlns:dt=""urn:schemas-microsoft-com:datatypes""><Description dt:dt=""string"">E-Prime Primary Realtime Clock</Description><StartTime><Timestamp dt:dt=""int"">0</Timestamp><DateUtc dt:dt=""string"">2013-09-14T06:48:31Z</DateUtc></StartTime><FrequencyChanges><FrequencyChange><Frequency dt:dt=""r8"">3312832</Frequency><Timestamp dt:dt=""r8"">584023471147</Timestamp><Current dt:dt=""r8"">0</Current><DateUtc dt:dt=""string"">2013-09-14T06:48:31Z</DateUtc></FrequencyChange></FrequencyChanges></Clock>\n";EXP2.2_290421-121-1;59.951;1.0.0.367;1;Chronos;-91496789;Full;3.0.3.80;3.0.3.80;09-14-2013;14/09/2013 06:48;08:48:31;3.0.3.82;2;Chronos;;2;1;2;TESTVV;Generalbloc;;;;pretest;Chronos;4;5;VV_110521/925.png;11;1;4;25;blocVVstim;listVVTrial;;;;Chronos;0;;0;1;309617;200;;0;0;1;5;Chronos;0;0;309817;300;5;685;310502;1;5;Chronos;0;0;310117;0;5;385;310502;;;;;;;;;;;;;;;;;;;
EXP2.2_290421;121;1;Chronos;<ChronosDeviceInfo><FriendlyName>MyChronos</FriendlyName><DeviceIndex>1</DeviceIndex><SerialNumber>CHR-04301-1186</SerialNumber><EBNVersion>3.0.3.80</EBNVersion><FirmwareVersion>1.33</FirmwareVersion><APIVersion>1.33</APIVersion><USBHostControllerVersion>2.0</USBHostControllerVersion><USBConnectionRoute>USB#ROOT_HUB20#4&f63975&0#{f18a0e88-c30c-11d0-8815-00a0c906bed8} + USB#VID_8087&PID_0024#5&365d106a&0&1#{f18a0e88-c30c-11d0-8815-00a0c906bed8}(1) + VID_2266&PID_0007(2)</USBConnectionRoute></ChronosDeviceInfo>;"<?xml version=""1.0""?>\n<Clock xmlns:dt=""urn:schemas-microsoft-com:datatypes""><Description dt:dt=""string"">E-Prime Primary Realtime Clock</Description><StartTime><Timestamp dt:dt=""int"">0</Timestamp><DateUtc dt:dt=""string"">2013-09-14T06:48:31Z</DateUtc></StartTime><FrequencyChanges><FrequencyChange><Frequency dt:dt=""r8"">3312832</Frequency><Timestamp dt:dt=""r8"">584023471147</Timestamp><Current dt:dt=""r8"">0</Current><DateUtc dt:dt=""string"">2013-09-14T06:48:31Z</DateUtc></FrequencyChange></FrequencyChanges></Clock>\n";EXP2.2_290421-121-1;59.951;1.0.0.367;1;Chronos;-91496789;Full;3.0.3.80;3.0.3.80;09-14-2013;14/09/2013 06:48;08:48:31;3.0.3.82;2;Chronos;;2;1;2;TESTVV;Generalbloc;;;;pretest;Chronos;5;1;VV_110521/895.png;5;1;5;-5;blocVVstim;listVVTrial;;;;Chronos;0;;0;2;312036;200;;0;0;1;1;Chronos;0;0;312236;300;1;1325;313561;1;1;Chronos;0;0;312536;0;1;1025;313561;;;;;;;;;;;;;;;;;;;
EXP2.2_290421;121;1;Chronos;<ChronosDeviceInfo><FriendlyName>MyChronos</FriendlyName><DeviceIndex>1</DeviceIndex><SerialNumber>CHR-04301-1186</SerialNumber><EBNVersion>3.0.3.80</EBNVersion><FirmwareVersion>1.33</FirmwareVersion><APIVersion>1.33</APIVersion><USBHostControllerVersion>2.0</USBHostControllerVersion><USBConnectionRoute>USB#ROOT_HUB20#4&f63975&0#{f18a0e88-c30c-11d0-8815-00a0c906bed8} + USB#VID_8087&PID_0024#5&365d106a&0&1#{f18a0e88-c30c-11d0-8815-00a0c906bed8}(1) + VID_2266&PID_0007(2)</USBConnectionRoute></ChronosDeviceInfo>;"<?xml version=""1.0""?>\n<Clock xmlns:dt=""urn:schemas-microsoft-com:datatypes""><Description dt:dt=""string"">E-Prime Primary Realtime Clock</Description><StartTime><Timestamp dt:dt=""int"">0</Timestamp><DateUtc dt:dt=""string"">2013-09-14T06:48:31Z</DateUtc></StartTime><FrequencyChanges><FrequencyChange><Frequency dt:dt=""r8"">3312832</Frequency><Timestamp dt:dt=""r8"">584023471147</Timestamp><Current dt:dt=""r8"">0</Current><DateUtc dt:dt=""string"">2013-09-14T06:48:31Z</DateUtc></FrequencyChange></FrequencyChanges></Clock>\n";EXP2.2_290421-121-1;59.951;1.0.0.367;1;Chronos;-91496789;Full;3.0.3.80;3.0.3.80;09-14-2013;14/09/2013 06:48;08:48:31;3.0.3.82;2;Chronos;;2;1;2;TESTVV;Generalbloc;;;;pretest;Chronos;6;15;VV_110521/900.png;6;1;6;0;blocVVstim;listVVTrial;;;;Chronos;0;;0;1;315088;200;;0;0;0;15;Chronos;0;0;315288;300;5;937;316225;0;15;Chronos;1;0;315588;0;5;637;316225;;;;;;;;;;;;;;;;;;;
EXP2.2_290421;121;1;Chronos;<ChronosDeviceInfo><FriendlyName>MyChronos</FriendlyName><DeviceIndex>1</DeviceIndex><SerialNumber>CHR-04301-1186</SerialNumber><EBNVersion>3.0.3.80</EBNVersion><FirmwareVersion>1.33</FirmwareVersion><APIVersion>1.33</APIVersion><USBHostControllerVersion>2.0</USBHostControllerVersion><USBConnectionRoute>USB#ROOT_HUB20#4&f63975&0#{f18a0e88-c30c-11d0-8815-00a0c906bed8} + USB#VID_8087&PID_0024#5&365d106a&0&1#{f18a0e88-c30c-11d0-8815-00a0c906bed8}(1) + VID_2266&PID_0007(2)</USBConnectionRoute></ChronosDeviceInfo>;"<?xml version=""1.0""?>\n<Clock xmlns:dt=""urn:schemas-microsoft-com:datatypes""><Description dt:dt=""string"">E-Prime Primary Realtime Clock</Description><StartTime><Timestamp dt:dt=""int"">0</Timestamp><DateUtc dt:dt=""string"">2013-09-14T06:48:31Z</DateUtc></StartTime><FrequencyChanges><FrequencyChange><Frequency dt:dt=""r8"">3312832</Frequency><Timestamp dt:dt=""r8"">584023471147</Timestamp><Current dt:dt=""r8"">0</Current><DateUtc dt:dt=""string"">2013-09-14T06:48:31Z</DateUtc></FrequencyChange></FrequencyChanges></Clock>\n";EXP2.2_290421-121-1;59.951;1.0.0.367;1;Chronos;-91496789;Full;3.0.3.80;3.0.3.80;09-14-2013;14/09/2013 06:48;08:48:31;3.0.3.82;2;Chronos;;2;1;2;TESTVV;Generalbloc;;;;pretest;Chronos;7;5;VV_110521/925.png;11;1;7;25;blocVVstim;listVVTrial;;;;Chronos;0;;0;1;317757;200;;0;0;1;5;Chronos;0;0;317957;300;5;1147;319104;1;5;Chronos;0;0;318257;0;5;847;319104;;;;;;;;;;;;;;;;;;;
EXP2.2_290421;121;1;Chronos;<ChronosDeviceInfo><FriendlyName>MyChronos</FriendlyName><DeviceIndex>1</DeviceIndex><SerialNumber>CHR-04301-1186</SerialNumber><EBNVersion>3.0.3.80</EBNVersion><FirmwareVersion>1.33</FirmwareVersion><APIVersion>1.33</APIVersion><USBHostControllerVersion>2.0</USBHostControllerVersion><USBConnectionRoute>USB#ROOT_HUB20#4&f63975&0#{f18a0e88-c30c-11d0-8815-00a0c906bed8} + USB#VID_8087&PID_0024#5&365d106a&0&1#{f18a0e88-c30c-11d0-8815-00a0c906bed8}(1) + VID_2266&PID_0007(2)</USBConnectionRoute></ChronosDeviceInfo>;"<?xml version=""1.0""?>\n<Clock xmlns:dt=""urn:schemas-microsoft-com:datatypes""><Description dt:dt=""string"">E-Prime Primary Realtime Clock</Description><StartTime><Timestamp dt:dt=""int"">0</Timestamp><DateUtc dt:dt=""string"">2013-09-14T06:48:31Z</DateUtc></StartTime><FrequencyChanges><FrequencyChange><Frequency dt:dt=""r8"">3312832</Frequency><Timestamp dt:dt=""r8"">584023471147</Timestamp><Current dt:dt=""r8"">0</Current><DateUtc dt:dt=""string"">2013-09-14T06:48:31Z</DateUtc></FrequencyChange></FrequencyChanges></Clock>\n";EXP2.2_290421-121-1;59.951;1.0.0.367;1;Chronos;-91496789;Full;3.0.3.80;3.0.3.80;09-14-2013;14/09/2013 06:48;08:48:31;3.0.3.82;2;Chronos;;2;1;2;TESTVV;Generalbloc;;;;pretest;Chronos;8;5;VV_110521/920.png;10;1;8;20;blocVVstim;listVVTrial;;;;Chronos;0;;0;2;320643;200;;0;0;1;5;Chronos;0;0;320843;300;5;1045;321888;1;5;Chronos;0;0;321143;0;5;745;321888;;;;;;;;;;;;;;;;;;;
EXP2.2_290421;121;1;Chronos;<ChronosDeviceInfo><FriendlyName>MyChronos</FriendlyName><DeviceIndex>1</DeviceIndex><SerialNumber>CHR-04301-1186</SerialNumber><EBNVersion>3.0.3.80</EBNVersion><FirmwareVersion>1.33</FirmwareVersion><APIVersion>1.33</APIVersion><USBHostControllerVersion>2.0</USBHostControllerVersion><USBConnectionRoute>USB#ROOT_HUB20#4&f63975&0#{f18a0e88-c30c-11d0-8815-00a0c906bed8} + USB#VID_8087&PID_0024#5&365d106a&0&1#{f18a0e88-c30c-11d0-8815-00a0c906bed8}(1) + VID_2266&PID_0007(2)</USBConnectionRoute></ChronosDeviceInfo>;"<?xml version=""1.0""?>\n<Clock xmlns:dt=""urn:schemas-microsoft-com:datatypes""><Description dt:dt=""string"">E-Prime Primary Realtime Clock</Description><StartTime><Timestamp dt:dt=""int"">0</Timestamp><DateUtc dt:dt=""string"">2013-09-14T06:48:31Z</DateUtc></StartTime><FrequencyChanges><FrequencyChange><Frequency dt:dt=""r8"">3312832</Frequency><Timestamp dt:dt=""r8"">584023471147</Timestamp><Current dt:dt=""r8"">0</Current><DateUtc dt:dt=""string"">2013-09-14T06:48:31Z</DateUtc></FrequencyChange></FrequencyChanges></Clock>\n";EXP2.2_290421-121-1;59.951;1.0.0.367;1;Chronos;-91496789;Full;3.0.3.80;3.0.3.80;09-14-2013;14/09/2013 06:48;08:48:31;3.0.3.82;2;Chronos;;2;1;2;TESTVV;Generalbloc;;;;pretest;Chronos;9;1;VV_110521/890.png;4;1;9;-10;blocVVstim;listVVTrial;;;;Chronos;0;;0;1;323428;200;;0;0;0;1;Chronos;1;0;323628;301;5;1171;324799;0;1;Chronos;0;1;323929;0;5;870;324799;;;;;;;;;;;;;;;;;;;
EXP2.2_290421;121;1;Chronos;<ChronosDeviceInfo><FriendlyName>MyChronos</FriendlyName><DeviceIndex>1</DeviceIndex><SerialNumber>CHR-04301-1186</SerialNumber><EBNVersion>3.0.3.80</EBNVersion><FirmwareVersion>1.33</FirmwareVersion><APIVersion>1.33</APIVersion><USBHostControllerVersion>2.0</USBHostControllerVersion><USBConnectionRoute>USB#ROOT_HUB20#4&f63975&0#{f18a0e88-c30c-11d0-8815-00a0c906bed8} + USB#VID_8087&PID_0024#5&365d106a&0&1#{f18a0e88-c30c-11d0-8815-00a0c906bed8}(1) + VID_2266&PID_0007(2)</USBConnectionRoute></ChronosDeviceInfo>;"<?xml version=""1.0""?>\n<Clock xmlns:dt=""urn:schemas-microsoft-com:datatypes""><Description dt:dt=""string"">E-Prime Primary Realtime Clock</Description><StartTime><Timestamp dt:dt=""int"">0</Timestamp><DateUtc dt:dt=""string"">2013-09-14T06:48:31Z</DateUtc></StartTime><FrequencyChanges><FrequencyChange><Frequency dt:dt=""r8"">3312832</Frequency><Timestamp dt:dt=""r8"">584023471147</Timestamp><Current dt:dt=""r8"">0</Current><DateUtc dt:dt=""string"">2013-09-14T06:48:31Z</DateUtc></FrequencyChange></FrequencyChanges></Clock>\n";EXP2.2_290421-121-1;59.951;1.0.0.367;1;Chronos;-91496789;Full;3.0.3.80;3.0.3.80;09-14-2013;14/09/2013 06:48;08:48:31;3.0.3.82;2;Chronos;;2;1;2;TESTVV;Generalbloc;;;;pretest;Chronos;10;1;VV_110521/890.png;4;1;10;-10;blocVVstim;listVVTrial;;;;Chronos;0;;0;2;326331;200;;0;0;0;1;Chronos;0;0;326531;300;5;1117;327648;0;1;Chronos;0;0;326831;0;5;817;327648;;;;;;;;;;;;;;;;;;;
EXP2.2_290421;121;1;Chronos;<ChronosDeviceInfo><FriendlyName>MyChronos</FriendlyName><DeviceIndex>1</DeviceIndex><SerialNumber>CHR-04301-1186</SerialNumber><EBNVersion>3.0.3.80</EBNVersion><FirmwareVersion>1.33</FirmwareVersion><APIVersion>1.33</APIVersion><USBHostControllerVersion>2.0</USBHostControllerVersion><USBConnectionRoute>USB#ROOT_HUB20#4&f63975&0#{f18a0e88-c30c-11d0-8815-00a0c906bed8} + USB#VID_8087&PID_0024#5&365d106a&0&1#{f18a0e88-c30c-11d0-8815-00a0c906bed8}(1) + VID_2266&PID_0007(2)</USBConnectionRoute></ChronosDeviceInfo>;"<?xml version=""1.0""?>\n<Clock xmlns:dt=""urn:schemas-microsoft-com:datatypes""><Description dt:dt=""string"">E-Prime Primary Realtime Clock</Description><StartTime><Timestamp dt:dt=""int"">0</Timestamp><DateUtc dt:dt=""string"">2013-09-14T06:48:31Z</DateUtc></StartTime><FrequencyChanges><FrequencyChange><Frequency dt:dt=""r8"">3312832</Frequency><Timestamp dt:dt=""r8"">584023471147</Timestamp><Current dt:dt=""r8"">0</Current><DateUtc dt:dt=""string"">2013-09-14T06:48:31Z</DateUtc></FrequencyChange></FrequencyChanges></Clock>\n";EXP2.2_290421-121-1;59.951;1.0.0.367;1;Chronos;-91496789;Full;3.0.3.80;3.0.3.80;09-14-2013;14/09/2013 06:48;08:48:31;3.0.3.82;2;Chronos;;2;1;2;TESTVV;Generalbloc;;;;pretest;Chronos;11;5;VV_110521/910.png;8;1;11;10;blocVVstim;listVVTrial;;;;Chronos;0;;0;1;329183;200;;0;0;1;5;Chronos;0;0;329383;300;5;2039;331422;1;5;Chronos;1;0;329683;0;5;1739;331422;;;;;;;;;;;;;;;;;;;
EXP2.2_290421;121;1;Chronos;<ChronosDeviceInfo><FriendlyName>MyChronos</FriendlyName><DeviceIndex>1</DeviceIndex><SerialNumber>CHR-04301-1186</SerialNumber><EBNVersion>3.0.3.80</EBNVersion><FirmwareVersion>1.33</FirmwareVersion><APIVersion>1.33</APIVersion><USBHostControllerVersion>2.0</USBHostControllerVersion><USBConnectionRoute>USB#ROOT_HUB20#4&f63975&0#{f18a0e88-c30c-11d0-8815-00a0c906bed8} + USB#VID_8087&PID_0024#5&365d106a&0&1#{f18a0e88-c30c-11d0-8815-00a0c906bed8}(1) + VID_2266&PID_0007(2)</USBConnectionRoute></ChronosDeviceInfo>;"<?xml version=""1.0""?>\n<Clock xmlns:dt=""urn:schemas-microsoft-com:datatypes""><Description dt:dt=""string"">E-Prime Primary Realtime Clock</Description><StartTime><Timestamp dt:dt=""int"">0</Timestamp><DateUtc dt:dt=""string"">2013-09-14T06:48:31Z</DateUtc></StartTime><FrequencyChanges><FrequencyChange><Frequency dt:dt=""r8"">3312832</Frequency><Timestamp dt:dt=""r8"">584023471147</Timestamp><Current dt:dt=""r8"">0</Current><DateUtc dt:dt=""string"">2013-09-14T06:48:31Z</DateUtc></FrequencyChange></FrequencyChanges></Clock>\n";EXP2.2_290421-121-1;59.951;1.0.0.367;1;Chronos;-91496789;Full;3.0.3.80;3.0.3.80;09-14-2013;14/09/2013 06:48;08:48:31;3.0.3.82;2;Chronos;;2;1;2;TESTVV;Generalbloc;;;;pretest;Chronos;12;1;VV_110521/885.png;3;1;12;-15;blocVVstim;listVVTrial;;;;Chronos;0;;0;1;332953;200;;0;0;0;1;Chronos;0;0;333153;300;5;1695;334848;0;1;Chronos;0;0;333453;0;5;1395;334848;;;;;;;;;;;;;;;;;;;
EXP2.2_290421;121;1;Chronos;<ChronosDeviceInfo><FriendlyName>MyChronos</FriendlyName><DeviceIndex>1</DeviceIndex><SerialNumber>CHR-04301-1186</SerialNumber><EBNVersion>3.0.3.80</EBNVersion><FirmwareVersion>1.33</FirmwareVersion><APIVersion>1.33</APIVersion><USBHostControllerVersion>2.0</USBHostControllerVersion><USBConnectionRoute>USB#ROOT_HUB20#4&f63975&0#{f18a0e88-c30c-11d0-8815-00a0c906bed8} + USB#VID_8087&PID_0024#5&365d106a&0&1#{f18a0e88-c30c-11d0-8815-00a0c906bed8}(1) + VID_2266&PID_0007(2)</USBConnectionRoute></ChronosDeviceInfo>;"<?xml version=""1.0""?>\n<Clock xmlns:dt=""urn:schemas-microsoft-com:datatypes""><Description dt:dt=""string"">E-Prime Primary Realtime Clock</Description><StartTime><Timestamp dt:dt=""int"">0</Timestamp><DateUtc dt:dt=""string"">2013-09-14T06:48:31Z</DateUtc></StartTime><FrequencyChanges><FrequencyChange><Frequency dt:dt=""r8"">3312832</Frequency><Timestamp dt:dt=""r8"">584023471147</Timestamp><Current dt:dt=""r8"">0</Current><DateUtc dt:dt=""string"">2013-09-14T06:48:31Z</DateUtc></FrequencyChange></FrequencyChanges></Clock>\n";EXP2.2_290421-121-1;59.951;1.0.0.367;1;Chronos;-91496789;Full;3.0.3.80;3.0.3.80;09-14-2013;14/09/2013 06:48;08:48:31;3.0.3.82;2;Chronos;;2;1;2;TESTVV;Generalbloc;;;;pretest;Chronos;13;1;VV_110521/880.png;2;1;13;-20;blocVVstim;listVVTrial;;;;Chronos;0;;0;1;336389;200;;0;0;0;1;Chronos;0;0;336589;300;5;1982;338571;0;1;Chronos;0;0;336889;0;5;1682;338571;;;;;;;;;;;;;;;;;;;
EXP2.2_290421;121;1;Chronos;<ChronosDeviceInfo><FriendlyName>MyChronos</FriendlyName><DeviceIndex>1</DeviceIndex><SerialNumber>CHR-04301-1186</SerialNumber><EBNVersion>3.0.3.80</EBNVersion><FirmwareVersion>1.33</FirmwareVersion><APIVersion>1.33</APIVersion><USBHostControllerVersion>2.0</USBHostControllerVersion><USBConnectionRoute>USB#ROOT_HUB20#4&f63975&0#{f18a0e88-c30c-11d0-8815-00a0c906bed8} + USB#VID_8087&PID_0024#5&365d106a&0&1#{f18a0e88-c30c-11d0-8815-00a0c906bed8}(1) + VID_2266&PID_0007(2)</USBConnectionRoute></ChronosDeviceInfo>;"<?xml version=""1.0""?>\n<Clock xmlns:dt=""urn:schemas-microsoft-com:datatypes""><Description dt:dt=""string"">E-Prime Primary Realtime Clock</Description><StartTime><Timestamp dt:dt=""int"">0</Timestamp><DateUtc dt:dt=""string"">2013-09-14T06:48:31Z</DateUtc></StartTime><FrequencyChanges><FrequencyChange><Frequency dt:dt=""r8"">3312832</Frequency><Timestamp dt:dt=""r8"">584023471147</Timestamp><Current dt:dt=""r8"">0</Current><DateUtc dt:dt=""string"">2013-09-14T06:48:31Z</DateUtc></FrequencyChange></FrequencyChanges></Clock>\n";EXP2.2_290421-121-1;59.951;1.0.0.367;1;Chronos;-91496789;Full;3.0.3.80;3.0.3.80;09-14-2013;14/09/2013 06:48;08:48:31;3.0.3.82;2;Chronos;;2;1;2;TESTVV;Generalbloc;;;;pretest;Chronos;14;15;VV_110521/900.png;6;1;14;0;blocVVstim;listVVTrial;;;;Chronos;0;;0;1;340109;200;;0;0;0;15;Chronos;0;0;340309;300;5;1344;341653;0;15;Chronos;0;0;340609;0;5;1044;341653;;;;;;;;;;;;;;;;;;;
EXP2.2_290421;121;1;Chronos;<ChronosDeviceInfo><FriendlyName>MyChronos</FriendlyName><DeviceIndex>1</DeviceIndex><SerialNumber>CHR-04301-1186</SerialNumber><EBNVersion>3.0.3.80</EBNVersion><FirmwareVersion>1.33</FirmwareVersion><APIVersion>1.33</APIVersion><USBHostControllerVersion>2.0</USBHostControllerVersion><USBConnectionRoute>USB#ROOT_HUB20#4&f63975&0#{f18a0e88-c30c-11d0-8815-00a0c906bed8} + USB#VID_8087&PID_0024#5&365d106a&0&1#{f18a0e88-c30c-11d0-8815-00a0c906bed8}(1) + VID_2266&PID_0007(2)</USBConnectionRoute></ChronosDeviceInfo>;"<?xml version=""1.0""?>\n<Clock xmlns:dt=""urn:schemas-microsoft-com:datatypes""><Description dt:dt=""string"">E-Prime Primary Realtime Clock</Description><StartTime><Timestamp dt:dt=""int"">0</Timestamp><DateUtc dt:dt=""string"">2013-09-14T06:48:31Z</DateUtc></StartTime><FrequencyChanges><FrequencyChange><Frequency dt:dt=""r8"">3312832</Frequency><Timestamp dt:dt=""r8"">584023471147</Timestamp><Current dt:dt=""r8"">0</Current><DateUtc dt:dt=""string"">2013-09-14T06:48:31Z</DateUtc></FrequencyChange></FrequencyChanges></Clock>\n";EXP2.2_290421-121-1;59.951;1.0.0.367;1;Chronos;-91496789;Full;3.0.3.80;3.0.3.80;09-14-2013;14/09/2013 06:48;08:48:31;3.0.3.82;2;Chronos;;2;1;2;TESTVV;Generalbloc;;;;pretest;Chronos;15;15;VV_110521/900.png;6;1;15;0;blocVVstim;listVVTrial;;;;Chronos;0;;0;2;343195;200;;0;0;0;15;Chronos;0;0;343395;300;5;1106;344501;0;15;Chronos;0;0;343695;0;5;806;344501;;;;;;;;;;;;;;;;;;;
EXP2.2_290421;121;1;Chronos;<ChronosDeviceInfo><FriendlyName>MyChronos</FriendlyName><DeviceIndex>1</DeviceIndex><SerialNumber>CHR-04301-1186</SerialNumber><EBNVersion>3.0.3.80</EBNVersion><FirmwareVersion>1.33</FirmwareVersion><APIVersion>1.33</APIVersion><USBHostControllerVersion>2.0</USBHostControllerVersion><USBConnectionRoute>USB#ROOT_HUB20#4&f63975&0#{f18a0e88-c30c-11d0-8815-00a0c906bed8} + USB#VID_8087&PID_0024#5&365d106a&0&1#{f18a0e88-c30c-11d0-8815-00a0c906bed8}(1) + VID_2266&PID_0007(2)</USBConnectionRoute></ChronosDeviceInfo>;"<?xml version=""1.0""?>\n<Clock xmlns:dt=""urn:schemas-microsoft-com:datatypes""><Description dt:dt=""string"">E-Prime Primary Realtime Clock</Description><StartTime><Timestamp dt:dt=""int"">0</Timestamp><DateUtc dt:dt=""string"">2013-09-14T06:48:31Z</DateUtc></StartTime><FrequencyChanges><FrequencyChange><Frequency dt:dt=""r8"">3312832</Frequency><Timestamp dt:dt=""r8"">584023471147</Timestamp><Current dt:dt=""r8"">0</Current><DateUtc dt:dt=""string"">2013-09-14T06:48:31Z</DateUtc></FrequencyChange></FrequencyChanges></Clock>\n";EXP2.2_290421-121-1;59.951;1.0.0.367;1;Chronos;-91496789;Full;3.0.3.80;3.0.3.80;09-14-2013;14/09/2013 06:48;08:48:31;3.0.3.82;2;Chronos;;2;1;2;TESTVV;Generalbloc;;;;pretest;Chronos;16;1;VV_110521/875.png;1;1;16;-25;blocVVstim;listVVTrial;;;;Chronos;0;;0;1;346030;201;;0;0;1;1;Chronos;0;1;346231;300;1;756;346987;1;1;Chronos;0;0;346531;0;1;456;346987;;;;;;;;;;;;;;;;;;;
EXP2.2_290421;121;1;Chronos;<ChronosDeviceInfo><FriendlyName>MyChronos</FriendlyName><DeviceIndex>1</DeviceIndex><SerialNumber>CHR-04301-1186</SerialNumber><EBNVersion>3.0.3.80</EBNVersion><FirmwareVersion>1.33</FirmwareVersion><APIVersion>1.33</APIVersion><USBHostControllerVersion>2.0</USBHostControllerVersion><USBConnectionRoute>USB#ROOT_HUB20#4&f63975&0#{f18a0e88-c30c-11d0-8815-00a0c906bed8} + USB#VID_8087&PID_0024#5&365d106a&0&1#{f18a0e88-c30c-11d0-8815-00a0c906bed8}(1) + VID_2266&PID_0007(2)</USBConnectionRoute></ChronosDeviceInfo>;"<?xml version=""1.0""?>\n<Clock xmlns:dt=""urn:schemas-microsoft-com:datatypes""><Description dt:dt=""string"">E-Prime Primary Realtime Clock</Description><StartTime><Timestamp dt:dt=""int"">0</Timestamp><DateUtc dt:dt=""string"">2013-09-14T06:48:31Z</DateUtc></StartTime><FrequencyChanges><FrequencyChange><Frequency dt:dt=""r8"">3312832</Frequency><Timestamp dt:dt=""r8"">584023471147</Timestamp><Current dt:dt=""r8"">0</Current><DateUtc dt:dt=""string"">2013-09-14T06:48:31Z</DateUtc></FrequencyChange></FrequencyChanges></Clock>\n";EXP2.2_290421-121-1;59.951;1.0.0.367;1;Chronos;-91496789;Full;3.0.3.80;3.0.3.80;09-14-2013;14/09/2013 06:48;08:48:31;3.0.3.82;2;Chronos;;2;1;2;TESTVV;Generalbloc;;;;pretest;Chronos;17;5;VV_110521/910.png;8;1;17;10;blocVVstim;listVVTrial;;;;Chronos;0;;0;2;348516;200;;0;0;1;5;Chronos;0;0;348716;300;5;1582;350298;1;5;Chronos;0;0;349016;0;5;1282;350298;;;;;;;;;;;;;;;;;;;
EXP2.2_290421;121;1;Chronos;<ChronosDeviceInfo><FriendlyName>MyChronos</FriendlyName><DeviceIndex>1</DeviceIndex><SerialNumber>CHR-04301-1186</SerialNumber><EBNVersion>3.0.3.80</EBNVersion><FirmwareVersion>1.33</FirmwareVersion><APIVersion>1.33</APIVersion><USBHostControllerVersion>2.0</USBHostControllerVersion><USBConnectionRoute>USB#ROOT_HUB20#4&f63975&0#{f18a0e88-c30c-11d0-8815-00a0c906bed8} + USB#VID_8087&PID_0024#5&365d106a&0&1#{f18a0e88-c30c-11d0-8815-00a0c906bed8}(1) + VID_2266&PID_0007(2)</USBConnectionRoute></ChronosDeviceInfo>;"<?xml version=""1.0""?>\n<Clock xmlns:dt=""urn:schemas-microsoft-com:datatypes""><Description dt:dt=""string"">E-Prime Primary Realtime Clock</Description><StartTime><Timestamp dt:dt=""int"">0</Timestamp><DateUtc dt:dt=""string"">2013-09-14T06:48:31Z</DateUtc></StartTime><FrequencyChanges><FrequencyChange><Frequency dt:dt=""r8"">3312832</Frequency><Timestamp dt:dt=""r8"">584023471147</Timestamp><Current dt:dt=""r8"">0</Current><DateUtc dt:dt=""string"">2013-09-14T06:48:31Z</DateUtc></FrequencyChange></FrequencyChanges></Clock>\n";EXP2.2_290421-121-1;59.951;1.0.0.367;1;Chronos;-91496789;Full;3.0.3.80;3.0.3.80;09-14-2013;14/09/2013 06:48;08:48:31;3.0.3.82;2;Chronos;;2;1;2;TESTVV;Generalbloc;;;;pretest;Chronos;18;1;VV_110521/875.png;1;1;18;-25;blocVVstim;listVVTrial;;;;Chronos;0;;0;1;351835;200;;0;0;1;1;Chronos;0;0;352035;301;1;900;352935;1;1;Chronos;0;1;352336;0;1;599;352935;;;;;;;;;;;;;;;;;;;
EXP2.2_290421;121;1;Chronos;<ChronosDeviceInfo><FriendlyName>MyChronos</FriendlyName><DeviceIndex>1</DeviceIndex><SerialNumber>CHR-04301-1186</SerialNumber><EBNVersion>3.0.3.80</EBNVersion><FirmwareVersion>1.33</FirmwareVersion><APIVersion>1.33</APIVersion><USBHostControllerVersion>2.0</USBHostControllerVersion><USBConnectionRoute>USB#ROOT_HUB20#4&f63975&0#{f18a0e88-c30c-11d0-8815-00a0c906bed8} + USB#VID_8087&PID_0024#5&365d106a&0&1#{f18a0e88-c30c-11d0-8815-00a0c906bed8}(1) + VID_2266&PID_0007(2)</USBConnectionRoute></ChronosDeviceInfo>;"<?xml version=""1.0""?>\n<Clock xmlns:dt=""urn:schemas-microsoft-com:datatypes""><Description dt:dt=""string"">E-Prime Primary Realtime Clock</Description><StartTime><Timestamp dt:dt=""int"">0</Timestamp><DateUtc dt:dt=""string"">2013-09-14T06:48:31Z</DateUtc></StartTime><FrequencyChanges><FrequencyChange><Frequency dt:dt=""r8"">3312832</Frequency><Timestamp dt:dt=""r8"">584023471147</Timestamp><Current dt:dt=""r8"">0</Current><DateUtc dt:dt=""string"">2013-09-14T06:48:31Z</DateUtc></FrequencyChange></FrequencyChanges></Clock>\n";EXP2.2_290421-121-1;59.951;1.0.0.367;1;Chronos;-91496789;Full;3.0.3.80;3.0.3.80;09-14-2013;14/09/2013 06:48;08:48:31;3.0.3.82;2;Chronos;;2;1;2;TESTVV;Generalbloc;;;;pretest;Chronos;19;1;VV_110521/875.png;1;1;19;-25;blocVVstim;listVVTrial;;;;Chronos;0;;0;2;354471;200;;0;0;0;1;Chronos;0;0;354671;300;5;937;355608;0;1;Chronos;0;0;354971;0;5;637;355608;;;;;;;;;;;;;;;;;;;
EXP2.2_290421;121;1;Chronos;<ChronosDeviceInfo><FriendlyName>MyChronos</FriendlyName><DeviceIndex>1</DeviceIndex><SerialNumber>CHR-04301-1186</SerialNumber><EBNVersion>3.0.3.80</EBNVersion><FirmwareVersion>1.33</FirmwareVersion><APIVersion>1.33</APIVersion><USBHostControllerVersion>2.0</USBHostControllerVersion><USBConnectionRoute>USB#ROOT_HUB20#4&f63975&0#{f18a0e88-c30c-11d0-8815-00a0c906bed8} + USB#VID_8087&PID_0024#5&365d106a&0&1#{f18a0e88-c30c-11d0-8815-00a0c906bed8}(1) + VID_2266&PID_0007(2)</USBConnectionRoute></ChronosDeviceInfo>;"<?xml version=""1.0""?>\n<Clock xmlns:dt=""urn:schemas-microsoft-com:datatypes""><Description dt:dt=""string"">E-Prime Primary Realtime Clock</Description><StartTime><Timestamp dt:dt=""int"">0</Timestamp><DateUtc dt:dt=""string"">2013-09-14T06:48:31Z</DateUtc></StartTime><FrequencyChanges><FrequencyChange><Frequency dt:dt=""r8"">3312832</Frequency><Timestamp dt:dt=""r8"">584023471147</Timestamp><Current dt:dt=""r8"">0</Current><DateUtc dt:dt=""string"">2013-09-14T06:48:31Z</DateUtc></FrequencyChange></FrequencyChanges></Clock>\n";EXP2.2_290421-121-1;59.951;1.0.0.367;1;Chronos;-91496789;Full;3.0.3.80;3.0.3.80;09-14-2013;14/09/2013 06:48;08:48:31;3.0.3.82;2;Chronos;;2;1;2;TESTVV;Generalbloc;;;;pretest;Chronos;20;1;VV_110521/890.png;4;1;20;-10;blocVVstim;listVVTrial;;;;Chronos;0;;0;2;357140;200;;0;0;0;1;Chronos;0;0;357340;300;5;1051;358391;0;1;Chronos;0;0;357640;0;5;751;358391;;;;;;;;;;;;;;;;;;;
EXP2.2_290421;121;1;Chronos;<ChronosDeviceInfo><FriendlyName>MyChronos</FriendlyName><DeviceIndex>1</DeviceIndex><SerialNumber>CHR-04301-1186</SerialNumber><EBNVersion>3.0.3.80</EBNVersion><FirmwareVersion>1.33</FirmwareVersion><APIVersion>1.33</APIVersion><USBHostControllerVersion>2.0</USBHostControllerVersion><USBConnectionRoute>USB#ROOT_HUB20#4&f63975&0#{f18a0e88-c30c-11d0-8815-00a0c906bed8} + USB#VID_8087&PID_0024#5&365d106a&0&1#{f18a0e88-c30c-11d0-8815-00a0c906bed8}(1) + VID_2266&PID_0007(2)</USBConnectionRoute></ChronosDeviceInfo>;"<?xml version=""1.0""?>\n<Clock xmlns:dt=""urn:schemas-microsoft-com:datatypes""><Description dt:dt=""string"">E-Prime Primary Realtime Clock</Description><StartTime><Timestamp dt:dt=""int"">0</Timestamp><DateUtc dt:dt=""string"">2013-09-14T06:48:31Z</DateUtc></StartTime><FrequencyChanges><FrequencyChange><Frequency dt:dt=""r8"">3312832</Frequency><Timestamp dt:dt=""r8"">584023471147</Timestamp><Current dt:dt=""r8"">0</Current><DateUtc dt:dt=""string"">2013-09-14T06:48:31Z</DateUtc></FrequencyChange></FrequencyChanges></Clock>\n";EXP2.2_290421-121-1;59.951;1.0.0.367;1;Chronos;-91496789;Full;3.0.3.80;3.0.3.80;09-14-2013;14/09/2013 06:48;08:48:31;3.0.3.82;2;Chronos;;2;1;2;TESTVV;Generalbloc;;;;pretest;Chronos;21;5;VV_110521/905.png;7;1;21;5;blocVVstim;listVVTrial;;;;Chronos;0;;0;1;359925;200;;0;0;1;5;Chronos;0;0;360125;301;5;903;361028;1;5;Chronos;0;1;360426;0;5;602;361028;;;;;;;;;;;;;;;;;;;
EXP2.2_290421;121;1;Chronos;<ChronosDeviceInfo><FriendlyName>MyChronos</FriendlyName><DeviceIndex>1</DeviceIndex><SerialNumber>CHR-04301-1186</SerialNumber><EBNVersion>3.0.3.80</EBNVersion><FirmwareVersion>1.33</FirmwareVersion><APIVersion>1.33</APIVersion><USBHostControllerVersion>2.0</USBHostControllerVersion><USBConnectionRoute>USB#ROOT_HUB20#4&f63975&0#{f18a0e88-c30c-11d0-8815-00a0c906bed8} + USB#VID_8087&PID_0024#5&365d106a&0&1#{f18a0e88-c30c-11d0-8815-00a0c906bed8}(1) + VID_2266&PID_0007(2)</USBConnectionRoute></ChronosDeviceInfo>;"<?xml version=""1.0""?>\n<Clock xmlns:dt=""urn:schemas-microsoft-com:datatypes""><Description dt:dt=""string"">E-Prime Primary Realtime Clock</Description><StartTime><Timestamp dt:dt=""int"">0</Timestamp><DateUtc dt:dt=""string"">2013-09-14T06:48:31Z</DateUtc></StartTime><FrequencyChanges><FrequencyChange><Frequency dt:dt=""r8"">3312832</Frequency><Timestamp dt:dt=""r8"">584023471147</Timestamp><Current dt:dt=""r8"">0</Current><DateUtc dt:dt=""string"">2013-09-14T06:48:31Z</DateUtc></FrequencyChange></FrequencyChanges></Clock>\n";EXP2.2_290421-121-1;59.951;1.0.0.367;1;Chronos;-91496789;Full;3.0.3.80;3.0.3.80;09-14-2013;14/09/2013 06:48;08:48:31;3.0.3.82;2;Chronos;;2;1;2;TESTVV;Generalbloc;;;;pretest;Chronos;22;1;VV_110521/885.png;3;1;22;-15;blocVVstim;listVVTrial;;;;Chronos;0;;0;2;362561;200;;0;0;1;1;Chronos;0;0;362761;300;1;1489;364250;1;1;Chronos;0;0;363061;0;1;1189;364250;;;;;;;;;;;;;;;;;;;
EXP2.2_290421;121;1;Chronos;<ChronosDeviceInfo><FriendlyName>MyChronos</FriendlyName><DeviceIndex>1</DeviceIndex><SerialNumber>CHR-04301-1186</SerialNumber><EBNVersion>3.0.3.80</EBNVersion><FirmwareVersion>1.33</FirmwareVersion><APIVersion>1.33</APIVersion><USBHostControllerVersion>2.0</USBHostControllerVersion><USBConnectionRoute>USB#ROOT_HUB20#4&f63975&0#{f18a0e88-c30c-11d0-8815-00a0c906bed8} + USB#VID_8087&PID_0024#5&365d106a&0&1#{f18a0e88-c30c-11d0-8815-00a0c906bed8}(1) + VID_2266&PID_0007(2)</USBConnectionRoute></ChronosDeviceInfo>;"<?xml version=""1.0""?>\n<Clock xmlns:dt=""urn:schemas-microsoft-com:datatypes""><Description dt:dt=""string"">E-Prime Primary Realtime Clock</Description><StartTime><Timestamp dt:dt=""int"">0</Timestamp><DateUtc dt:dt=""string"">2013-09-14T06:48:31Z</DateUtc></StartTime><FrequencyChanges><FrequencyChange><Frequency dt:dt=""r8"">3312832</Frequency><Timestamp dt:dt=""r8"">584023471147</Timestamp><Current dt:dt=""r8"">0</Current><DateUtc dt:dt=""string"">2013-09-14T06:48:31Z</DateUtc></FrequencyChange></FrequencyChanges></Clock>\n";EXP2.2_290421-121-1;59.951;1.0.0.367;1;Chronos;-91496789;Full;3.0.3.80;3.0.3.80;09-14-2013;14/09/2013 06:48;08:48:31;3.0.3.82;2;Chronos;;2;1;2;TESTVV;Generalbloc;;;;pretest;Chronos;23;1;VV_110521/875.png;1;1;23;-25;blocVVstim;listVVTrial;;;;Chronos;0;;0;1;365780;200;;0;0;1;1;Chronos;0;0;365980;300;1;574;366554;1;1;Chronos;0;0;366280;0;1;274;366554;;;;;;;;;;;;;;;;;;;
EXP2.2_290421;121;1;Chronos;<ChronosDeviceInfo><FriendlyName>MyChronos</FriendlyName><DeviceIndex>1</DeviceIndex><SerialNumber>CHR-04301-1186</SerialNumber><EBNVersion>3.0.3.80</EBNVersion><FirmwareVersion>1.33</FirmwareVersion><APIVersion>1.33</APIVersion><USBHostControllerVersion>2.0</USBHostControllerVersion><USBConnectionRoute>USB#ROOT_HUB20#4&f63975&0#{f18a0e88-c30c-11d0-8815-00a0c906bed8} + USB#VID_8087&PID_0024#5&365d106a&0&1#{f18a0e88-c30c-11d0-8815-00a0c906bed8}(1) + VID_2266&PID_0007(2)</USBConnectionRoute></ChronosDeviceInfo>;"<?xml version=""1.0""?>\n<Clock xmlns:dt=""urn:schemas-microsoft-com:datatypes""><Description dt:dt=""string"">E-Prime Primary Realtime Clock</Description><StartTime><Timestamp dt:dt=""int"">0</Timestamp><DateUtc dt:dt=""string"">2013-09-14T06:48:31Z</DateUtc></StartTime><FrequencyChanges><FrequencyChange><Frequency dt:dt=""r8"">3312832</Frequency><Timestamp dt:dt=""r8"">584023471147</Timestamp><Current dt:dt=""r8"">0</Current><DateUtc dt:dt=""string"">2013-09-14T06:48:31Z</DateUtc></FrequencyChange></FrequencyChanges></Clock>\n";EXP2.2_290421-121-1;59.951;1.0.0.367;1;Chronos;-91496789;Full;3.0.3.80;3.0.3.80;09-14-2013;14/09/2013 06:48;08:48:31;3.0.3.82;2;Chronos;;2;1;2;TESTVV;Generalbloc;;;;pretest;Chronos;24;1;VV_110521/880.png;2;1;24;-20;blocVVstim;listVVTrial;;;;Chronos;0;;0;1;368082;200;;0;0;1;1;Chronos;0;0;368282;300;1;1663;369945;1;1;Chronos;0;0;368582;0;1;1363;369945;;;;;;;;;;;;;;;;;;;
EXP2.2_290421;121;1;Chronos;<ChronosDeviceInfo><FriendlyName>MyChronos</FriendlyName><DeviceIndex>1</DeviceIndex><SerialNumber>CHR-04301-1186</SerialNumber><EBNVersion>3.0.3.80</EBNVersion><FirmwareVersion>1.33</FirmwareVersion><APIVersion>1.33</APIVersion><USBHostControllerVersion>2.0</USBHostControllerVersion><USBConnectionRoute>USB#ROOT_HUB20#4&f63975&0#{f18a0e88-c30c-11d0-8815-00a0c906bed8} + USB#VID_8087&PID_0024#5&365d106a&0&1#{f18a0e88-c30c-11d0-8815-00a0c906bed8}(1) + VID_2266&PID_0007(2)</USBConnectionRoute></ChronosDeviceInfo>;"<?xml version=""1.0""?>\n<Clock xmlns:dt=""urn:schemas-microsoft-com:datatypes""><Description dt:dt=""string"">E-Prime Primary Realtime Clock</Description><StartTime><Timestamp dt:dt=""int"">0</Timestamp><DateUtc dt:dt=""string"">2013-09-14T06:48:31Z</DateUtc></StartTime><FrequencyChanges><FrequencyChange><Frequency dt:dt=""r8"">3312832</Frequency><Timestamp dt:dt=""r8"">584023471147</Timestamp><Current dt:dt=""r8"">0</Current><DateUtc dt:dt=""string"">2013-09-14T06:48:31Z</DateUtc></FrequencyChange></FrequencyChanges></Clock>\n";EXP2.2_290421-121-1;59.951;1.0.0.367;1;Chronos;-91496789;Full;3.0.3.80;3.0.3.80;09-14-2013;14/09/2013 06:48;08:48:31;3.0.3.82;2;Chronos;;2;1;2;TESTVV;Generalbloc;;;;pretest;Chronos;25;5;VV_110521/920.png;10;1;25;20;blocVVstim;listVVTrial;;;;Chronos;0;;0;1;371468;200;;0;0;1;5;Chronos;0;0;371668;300;5;867;372535;1;5;Chronos;1;0;371968;0;5;567;372535;;;;;;;;;;;;;;;;;;;
EXP2.2_290421;121;1;Chronos;<ChronosDeviceInfo><FriendlyName>MyChronos</FriendlyName><DeviceIndex>1</DeviceIndex><SerialNumber>CHR-04301-1186</SerialNumber><EBNVersion>3.0.3.80</EBNVersion><FirmwareVersion>1.33</FirmwareVersion><APIVersion>1.33</APIVersion><USBHostControllerVersion>2.0</USBHostControllerVersion><USBConnectionRoute>USB#ROOT_HUB20#4&f63975&0#{f18a0e88-c30c-11d0-8815-00a0c906bed8} + USB#VID_8087&PID_0024#5&365d106a&0&1#{f18a0e88-c30c-11d0-8815-00a0c906bed8}(1) + VID_2266&PID_0007(2)</USBConnectionRoute></ChronosDeviceInfo>;"<?xml version=""1.0""?>\n<Clock xmlns:dt=""urn:schemas-microsoft-com:datatypes""><Description dt:dt=""string"">E-Prime Primary Realtime Clock</Description><StartTime><Timestamp dt:dt=""int"">0</Timestamp><DateUtc dt:dt=""string"">2013-09-14T06:48:31Z</DateUtc></StartTime><FrequencyChanges><FrequencyChange><Frequency dt:dt=""r8"">3312832</Frequency><Timestamp dt:dt=""r8"">584023471147</Timestamp><Current dt:dt=""r8"">0</Current><DateUtc dt:dt=""string"">2013-09-14T06:48:31Z</DateUtc></FrequencyChange></FrequencyChanges></Clock>\n";EXP2.2_290421-121-1;59.951;1.0.0.367;1;Chronos;-91496789;Full;3.0.3.80;3.0.3.80;09-14-2013;14/09/2013 06:48;08:48:31;3.0.3.82;2;Chronos;;2;1;2;TESTVV;Generalbloc;;;;pretest;Chronos;26;1;VV_110521/885.png;3;1;26;-15;blocVVstim;listVVTrial;;;;Chronos;0;;0;1;374070;200;;0;0;0;1;Chronos;0;0;374270;301;5;1335;375605;0;1;Chronos;0;1;374571;0;5;1034;375605;;;;;;;;;;;;;;;;;;;
EXP2.2_290421;121;1;Chronos;<ChronosDeviceInfo><FriendlyName>MyChronos</FriendlyName><DeviceIndex>1</DeviceIndex><SerialNumber>CHR-04301-1186</SerialNumber><EBNVersion>3.0.3.80</EBNVersion><FirmwareVersion>1.33</FirmwareVersion><APIVersion>1.33</APIVersion><USBHostControllerVersion>2.0</USBHostControllerVersion><USBConnectionRoute>USB#ROOT_HUB20#4&f63975&0#{f18a0e88-c30c-11d0-8815-00a0c906bed8} + USB#VID_8087&PID_0024#5&365d106a&0&1#{f18a0e88-c30c-11d0-8815-00a0c906bed8}(1) + VID_2266&PID_0007(2)</USBConnectionRoute></ChronosDeviceInfo>;"<?xml version=""1.0""?>\n<Clock xmlns:dt=""urn:schemas-microsoft-com:datatypes""><Description dt:dt=""string"">E-Prime Primary Realtime Clock</Description><StartTime><Timestamp dt:dt=""int"">0</Timestamp><DateUtc dt:dt=""string"">2013-09-14T06:48:31Z</DateUtc></StartTime><FrequencyChanges><FrequencyChange><Frequency dt:dt=""r8"">3312832</Frequency><Timestamp dt:dt=""r8"">584023471147</Timestamp><Current dt:dt=""r8"">0</Current><DateUtc dt:dt=""string"">2013-09-14T06:48:31Z</DateUtc></FrequencyChange></FrequencyChanges></Clock>\n";EXP2.2_290421-121-1;59.951;1.0.0.367;1;Chronos;-91496789;Full;3.0.3.80;3.0.3.80;09-14-2013;14/09/2013 06:48;08:48:31;3.0.3.82;2;Chronos;;2;1;2;TESTVV;Generalbloc;;;;pretest;Chronos;27;5;VV_110521/905.png;7;1;27;5;blocVVstim;listVVTrial;;;;Chronos;0;;0;1;377139;201;;0;0;1;5;Chronos;0;1;377340;300;5;1118;378458;1;5;Chronos;0;0;377640;0;5;818;378458;;;;;;;;;;;;;;;;;;;
EXP2.2_290421;121;1;Chronos;<ChronosDeviceInfo><FriendlyName>MyChronos</FriendlyName><DeviceIndex>1</DeviceIndex><SerialNumber>CHR-04301-1186</SerialNumber><EBNVersion>3.0.3.80</EBNVersion><FirmwareVersion>1.33</FirmwareVersion><APIVersion>1.33</APIVersion><USBHostControllerVersion>2.0</USBHostControllerVersion><USBConnectionRoute>USB#ROOT_HUB20#4&f63975&0#{f18a0e88-c30c-11d0-8815-00a0c906bed8} + USB#VID_8087&PID_0024#5&365d106a&0&1#{f18a0e88-c30c-11d0-8815-00a0c906bed8}(1) + VID_2266&PID_0007(2)</USBConnectionRoute></ChronosDeviceInfo>;"<?xml version=""1.0""?>\n<Clock xmlns:dt=""urn:schemas-microsoft-com:datatypes""><Description dt:dt=""string"">E-Prime Primary Realtime Clock</Description><StartTime><Timestamp dt:dt=""int"">0</Timestamp><DateUtc dt:dt=""string"">2013-09-14T06:48:31Z</DateUtc></StartTime><FrequencyChanges><FrequencyChange><Frequency dt:dt=""r8"">3312832</Frequency><Timestamp dt:dt=""r8"">584023471147</Timestamp><Current dt:dt=""r8"">0</Current><DateUtc dt:dt=""string"">2013-09-14T06:48:31Z</DateUtc></FrequencyChange></FrequencyChanges></Clock>\n";EXP2.2_290421-121-1;59.951;1.0.0.367;1;Chronos;-91496789;Full;3.0.3.80;3.0.3.80;09-14-2013;14/09/2013 06:48;08:48:31;3.0.3.82;2;Chronos;;2;1;2;TESTVV;Generalbloc;;;;pretest;Chronos;28;1;VV_110521/895.png;5;1;28;-5;blocVVstim;listVVTrial;;;;Chronos;0;;0;1;379992;200;;0;0;0;1;Chronos;0;0;380192;300;5;1049;381241;0;1;Chronos;0;0;380492;0;5;749;381241;;;;;;;;;;;;;;;;;;;
EXP2.2_290421;121;1;Chronos;<ChronosDeviceInfo><FriendlyName>MyChronos</FriendlyName><DeviceIndex>1</DeviceIndex><SerialNumber>CHR-04301-1186</SerialNumber><EBNVersion>3.0.3.80</EBNVersion><FirmwareVersion>1.33</FirmwareVersion><APIVersion>1.33</APIVersion><USBHostControllerVersion>2.0</USBHostControllerVersion><USBConnectionRoute>USB#ROOT_HUB20#4&f63975&0#{f18a0e88-c30c-11d0-8815-00a0c906bed8} + USB#VID_8087&PID_0024#5&365d106a&0&1#{f18a0e88-c30c-11d0-8815-00a0c906bed8}(1) + VID_2266&PID_0007(2)</USBConnectionRoute></ChronosDeviceInfo>;"<?xml version=""1.0""?>\n<Clock xmlns:dt=""urn:schemas-microsoft-com:datatypes""><Description dt:dt=""string"">E-Prime Primary Realtime Clock</Description><StartTime><Timestamp dt:dt=""int"">0</Timestamp><DateUtc dt:dt=""string"">2013-09-14T06:48:31Z</DateUtc></StartTime><FrequencyChanges><FrequencyChange><Frequency dt:dt=""r8"">3312832</Frequency><Timestamp dt:dt=""r8"">584023471147</Timestamp><Current dt:dt=""r8"">0</Current><DateUtc dt:dt=""string"">2013-09-14T06:48:31Z</DateUtc></FrequencyChange></FrequencyChanges></Clock>\n";EXP2.2_290421-121-1;59.951;1.0.0.367;1;Chronos;-91496789;Full;3.0.3.80;3.0.3.80;09-14-2013;14/09/2013 06:48;08:48:31;3.0.3.82;2;Chronos;;2;1;2;TESTVV;Generalbloc;;;;pretest;Chronos;29;5;VV_110521/915.png;9;1;29;15;blocVVstim;listVVTrial;;;;Chronos;0;;0;1;382777;201;;0;0;1;5;Chronos;0;1;382978;300;5;876;383854;1;5;Chronos;0;0;383278;0;5;576;383854;;;;;;;;;;;;;;;;;;;
EXP2.2_290421;121;1;Chronos;<ChronosDeviceInfo><FriendlyName>MyChronos</FriendlyName><DeviceIndex>1</DeviceIndex><SerialNumber>CHR-04301-1186</SerialNumber><EBNVersion>3.0.3.80</EBNVersion><FirmwareVersion>1.33</FirmwareVersion><APIVersion>1.33</APIVersion><USBHostControllerVersion>2.0</USBHostControllerVersion><USBConnectionRoute>USB#ROOT_HUB20#4&f63975&0#{f18a0e88-c30c-11d0-8815-00a0c906bed8} + USB#VID_8087&PID_0024#5&365d106a&0&1#{f18a0e88-c30c-11d0-8815-00a0c906bed8}(1) + VID_2266&PID_0007(2)</USBConnectionRoute></ChronosDeviceInfo>;"<?xml version=""1.0""?>\n<Clock xmlns:dt=""urn:schemas-microsoft-com:datatypes""><Description dt:dt=""string"">E-Prime Primary Realtime Clock</Description><StartTime><Timestamp dt:dt=""int"">0</Timestamp><DateUtc dt:dt=""string"">2013-09-14T06:48:31Z</DateUtc></StartTime><FrequencyChanges><FrequencyChange><Frequency dt:dt=""r8"">3312832</Frequency><Timestamp dt:dt=""r8"">584023471147</Timestamp><Current dt:dt=""r8"">0</Current><DateUtc dt:dt=""string"">2013-09-14T06:48:31Z</DateUtc></FrequencyChange></FrequencyChanges></Clock>\n";EXP2.2_290421-121-1;59.951;1.0.0.367;1;Chronos;-91496789;Full;3.0.3.80;3.0.3.80;09-14-2013;14/09/2013 06:48;08:48:31;3.0.3.82;2;Chronos;;2;1;2;TESTVV;Generalbloc;;;;pretest;Chronos;30;1;VV_110521/875.png;1;1;30;-25;blocVVstim;listVVTrial;;;;Chronos;0;;0;2;385380;200;;0;0;1;1;Chronos;0;0;385580;300;1;985;386565;1;1;Chronos;0;0;385880;0;1;685;386565;;;;;;;;;;;;;;;;;;;
EXP2.2_290421;121;1;Chronos;<ChronosDeviceInfo><FriendlyName>MyChronos</FriendlyName><DeviceIndex>1</DeviceIndex><SerialNumber>CHR-04301-1186</SerialNumber><EBNVersion>3.0.3.80</EBNVersion><FirmwareVersion>1.33</FirmwareVersion><APIVersion>1.33</APIVersion><USBHostControllerVersion>2.0</USBHostControllerVersion><USBConnectionRoute>USB#ROOT_HUB20#4&f63975&0#{f18a0e88-c30c-11d0-8815-00a0c906bed8} + USB#VID_8087&PID_0024#5&365d106a&0&1#{f18a0e88-c30c-11d0-8815-00a0c906bed8}(1) + VID_2266&PID_0007(2)</USBConnectionRoute></ChronosDeviceInfo>;"<?xml version=""1.0""?>\n<Clock xmlns:dt=""urn:schemas-microsoft-com:datatypes""><Description dt:dt=""string"">E-Prime Primary Realtime Clock</Description><StartTime><Timestamp dt:dt=""int"">0</Timestamp><DateUtc dt:dt=""string"">2013-09-14T06:48:31Z</DateUtc></StartTime><FrequencyChanges><FrequencyChange><Frequency dt:dt=""r8"">3312832</Frequency><Timestamp dt:dt=""r8"">584023471147</Timestamp><Current dt:dt=""r8"">0</Current><DateUtc dt:dt=""string"">2013-09-14T06:48:31Z</DateUtc></FrequencyChange></FrequencyChanges></Clock>\n";EXP2.2_290421-121-1;59.951;1.0.0.367;1;Chronos;-91496789;Full;3.0.3.80;3.0.3.80;09-14-2013;14/09/2013 06:48;08:48:31;3.0.3.82;2;Chronos;;2;1;2;TESTVV;Generalbloc;;;;pretest;Chronos;31;5;VV_110521/905.png;7;1;31;5;blocVVstim;listVVTrial;;;;Chronos;0;;1;1;388098;201;;0;0;1;5;Chronos;0;1;388299;300;5;892;389191;1;5;Chronos;0;0;388599;0;5;592;389191;;;;;;;;;;;;;;;;;;;
EXP2.2_290421;121;1;Chronos;<ChronosDeviceInfo><FriendlyName>MyChronos</FriendlyName><DeviceIndex>1</DeviceIndex><SerialNumber>CHR-04301-1186</SerialNumber><EBNVersion>3.0.3.80</EBNVersion><FirmwareVersion>1.33</FirmwareVersion><APIVersion>1.33</APIVersion><USBHostControllerVersion>2.0</USBHostControllerVersion><USBConnectionRoute>USB#ROOT_HUB20#4&f63975&0#{f18a0e88-c30c-11d0-8815-00a0c906bed8} + USB#VID_8087&PID_0024#5&365d106a&0&1#{f18a0e88-c30c-11d0-8815-00a0c906bed8}(1) + VID_2266&PID_0007(2)</USBConnectionRoute></ChronosDeviceInfo>;"<?xml version=""1.0""?>\n<Clock xmlns:dt=""urn:schemas-microsoft-com:datatypes""><Description dt:dt=""string"">E-Prime Primary Realtime Clock</Description><StartTime><Timestamp dt:dt=""int"">0</Timestamp><DateUtc dt:dt=""string"">2013-09-14T06:48:31Z</DateUtc></StartTime><FrequencyChanges><FrequencyChange><Frequency dt:dt=""r8"">3312832</Frequency><Timestamp dt:dt=""r8"">584023471147</Timestamp><Current dt:dt=""r8"">0</Current><DateUtc dt:dt=""string"">2013-09-14T06:48:31Z</DateUtc></FrequencyChange></FrequencyChanges></Clock>\n";EXP2.2_290421-121-1;59.951;1.0.0.367;1;Chronos;-91496789;Full;3.0.3.80;3.0.3.80;09-14-2013;14/09/2013 06:48;08:48:31;3.0.3.82;2;Chronos;;2;1;2;TESTVV;Generalbloc;;;;pretest;Chronos;32;1;VV_110521/875.png;1;1;32;-25;blocVVstim;listVVTrial;;;;Chronos;0;;0;1;390717;200;;0;0;1;1;Chronos;1;0;390917;301;1;1181;392098;1;1;Chronos;0;1;391218;0;1;880;392098;;;;;;;;;;;;;;;;;;;
EXP2.2_290421;121;1;Chronos;<ChronosDeviceInfo><FriendlyName>MyChronos</FriendlyName><DeviceIndex>1</DeviceIndex><SerialNumber>CHR-04301-1186</SerialNumber><EBNVersion>3.0.3.80</EBNVersion><FirmwareVersion>1.33</FirmwareVersion><APIVersion>1.33</APIVersion><USBHostControllerVersion>2.0</USBHostControllerVersion><USBConnectionRoute>USB#ROOT_HUB20#4&f63975&0#{f18a0e88-c30c-11d0-8815-00a0c906bed8} + USB#VID_8087&PID_0024#5&365d106a&0&1#{f18a0e88-c30c-11d0-8815-00a0c906bed8}(1) + VID_2266&PID_0007(2)</USBConnectionRoute></ChronosDeviceInfo>;"<?xml version=""1.0""?>\n<Clock xmlns:dt=""urn:schemas-microsoft-com:datatypes""><Description dt:dt=""string"">E-Prime Primary Realtime Clock</Description><StartTime><Timestamp dt:dt=""int"">0</Timestamp><DateUtc dt:dt=""string"">2013-09-14T06:48:31Z</DateUtc></StartTime><FrequencyChanges><FrequencyChange><Frequency dt:dt=""r8"">3312832</Frequency><Timestamp dt:dt=""r8"">584023471147</Timestamp><Current dt:dt=""r8"">0</Current><DateUtc dt:dt=""string"">2013-09-14T06:48:31Z</DateUtc></FrequencyChange></FrequencyChanges></Clock>\n";EXP2.2_290421-121-1;59.951;1.0.0.367;1;Chronos;-91496789;Full;3.0.3.80;3.0.3.80;09-14-2013;14/09/2013 06:48;08:48:31;3.0.3.82;2;Chronos;;2;1;2;TESTVV;Generalbloc;;;;pretest;Chronos;33;1;VV_110521/890.png;4;1;33;-10;blocVVstim;listVVTrial;;;;Chronos;0;;0;1;393636;201;;0;0;0;1;Chronos;0;1;393837;300;5;1057;394894;0;1;Chronos;0;0;394137;0;5;757;394894;;;;;;;;;;;;;;;;;;;
EXP2.2_290421;121;1;Chronos;<ChronosDeviceInfo><FriendlyName>MyChronos</FriendlyName><DeviceIndex>1</DeviceIndex><SerialNumber>CHR-04301-1186</SerialNumber><EBNVersion>3.0.3.80</EBNVersion><FirmwareVersion>1.33</FirmwareVersion><APIVersion>1.33</APIVersion><USBHostControllerVersion>2.0</USBHostControllerVersion><USBConnectionRoute>USB#ROOT_HUB20#4&f63975&0#{f18a0e88-c30c-11d0-8815-00a0c906bed8} + USB#VID_8087&PID_0024#5&365d106a&0&1#{f18a0e88-c30c-11d0-8815-00a0c906bed8}(1) + VID_2266&PID_0007(2)</USBConnectionRoute></ChronosDeviceInfo>;"<?xml version=""1.0""?>\n<Clock xmlns:dt=""urn:schemas-microsoft-com:datatypes""><Description dt:dt=""string"">E-Prime Primary Realtime Clock</Description><StartTime><Timestamp dt:dt=""int"">0</Timestamp><DateUtc dt:dt=""string"">2013-09-14T06:48:31Z</DateUtc></StartTime><FrequencyChanges><FrequencyChange><Frequency dt:dt=""r8"">3312832</Frequency><Timestamp dt:dt=""r8"">584023471147</Timestamp><Current dt:dt=""r8"">0</Current><DateUtc dt:dt=""string"">2013-09-14T06:48:31Z</DateUtc></FrequencyChange></FrequencyChanges></Clock>\n";EXP2.2_290421-121-1;59.951;1.0.0.367;1;Chronos;-91496789;Full;3.0.3.80;3.0.3.80;09-14-2013;14/09/2013 06:48;08:48:31;3.0.3.82;2;Chronos;;2;1;2;TESTVV;Generalbloc;;;;pretest;Chronos;34;5;VV_110521/925.png;11;1;34;25;blocVVstim;listVVTrial;;;;Chronos;0;;0;1;396422;200;;0;0;1;5;Chronos;0;0;396622;300;5;914;397536;1;5;Chronos;1;0;396922;0;5;614;397536;;;;;;;;;;;;;;;;;;;
EXP2.2_290421;121;1;Chronos;<ChronosDeviceInfo><FriendlyName>MyChronos</FriendlyName><DeviceIndex>1</DeviceIndex><SerialNumber>CHR-04301-1186</SerialNumber><EBNVersion>3.0.3.80</EBNVersion><FirmwareVersion>1.33</FirmwareVersion><APIVersion>1.33</APIVersion><USBHostControllerVersion>2.0</USBHostControllerVersion><USBConnectionRoute>USB#ROOT_HUB20#4&f63975&0#{f18a0e88-c30c-11d0-8815-00a0c906bed8} + USB#VID_8087&PID_0024#5&365d106a&0&1#{f18a0e88-c30c-11d0-8815-00a0c906bed8}(1) + VID_2266&PID_0007(2)</USBConnectionRoute></ChronosDeviceInfo>;"<?xml version=""1.0""?>\n<Clock xmlns:dt=""urn:schemas-microsoft-com:datatypes""><Description dt:dt=""string"">E-Prime Primary Realtime Clock</Description><StartTime><Timestamp dt:dt=""int"">0</Timestamp><DateUtc dt:dt=""string"">2013-09-14T06:48:31Z</DateUtc></StartTime><FrequencyChanges><FrequencyChange><Frequency dt:dt=""r8"">3312832</Frequency><Timestamp dt:dt=""r8"">584023471147</Timestamp><Current dt:dt=""r8"">0</Current><DateUtc dt:dt=""string"">2013-09-14T06:48:31Z</DateUtc></FrequencyChange></FrequencyChanges></Clock>\n";EXP2.2_290421-121-1;59.951;1.0.0.367;1;Chronos;-91496789;Full;3.0.3.80;3.0.3.80;09-14-2013;14/09/2013 06:48;08:48:31;3.0.3.82;2;Chronos;;2;1;2;TESTVV;Generalbloc;;;;pretest;Chronos;35;5;VV_110521/925.png;11;1;35;25;blocVVstim;listVVTrial;;;;Chronos;0;;0;1;399074;200;;0;0;1;5;Chronos;0;0;399274;301;5;1132;400406;1;5;Chronos;0;1;399575;0;5;831;400406;;;;;;;;;;;;;;;;;;;
EXP2.2_290421;121;1;Chronos;<ChronosDeviceInfo><FriendlyName>MyChronos</FriendlyName><DeviceIndex>1</DeviceIndex><SerialNumber>CHR-04301-1186</SerialNumber><EBNVersion>3.0.3.80</EBNVersion><FirmwareVersion>1.33</FirmwareVersion><APIVersion>1.33</APIVersion><USBHostControllerVersion>2.0</USBHostControllerVersion><USBConnectionRoute>USB#ROOT_HUB20#4&f63975&0#{f18a0e88-c30c-11d0-8815-00a0c906bed8} + USB#VID_8087&PID_0024#5&365d106a&0&1#{f18a0e88-c30c-11d0-8815-00a0c906bed8}(1) + VID_2266&PID_0007(2)</USBConnectionRoute></ChronosDeviceInfo>;"<?xml version=""1.0""?>\n<Clock xmlns:dt=""urn:schemas-microsoft-com:datatypes""><Description dt:dt=""string"">E-Prime Primary Realtime Clock</Description><StartTime><Timestamp dt:dt=""int"">0</Timestamp><DateUtc dt:dt=""string"">2013-09-14T06:48:31Z</DateUtc></StartTime><FrequencyChanges><FrequencyChange><Frequency dt:dt=""r8"">3312832</Frequency><Timestamp dt:dt=""r8"">584023471147</Timestamp><Current dt:dt=""r8"">0</Current><DateUtc dt:dt=""string"">2013-09-14T06:48:31Z</DateUtc></FrequencyChange></FrequencyChanges></Clock>\n";EXP2.2_290421-121-1;59.951;1.0.0.367;1;Chronos;-91496789;Full;3.0.3.80;3.0.3.80;09-14-2013;14/09/2013 06:48;08:48:31;3.0.3.82;2;Chronos;;2;1;2;TESTVV;Generalbloc;;;;pretest;Chronos;36;1;VV_110521/880.png;2;1;36;-20;blocVVstim;listVVTrial;;;;Chronos;0;;0;1;401943;200;;0;0;1;1;Chronos;1;0;402143;301;1;1117;403260;1;1;Chronos;0;1;402444;0;1;816;403260;;;;;;;;;;;;;;;;;;;
EXP2.2_290421;121;1;Chronos;<ChronosDeviceInfo><FriendlyName>MyChronos</FriendlyName><DeviceIndex>1</DeviceIndex><SerialNumber>CHR-04301-1186</SerialNumber><EBNVersion>3.0.3.80</EBNVersion><FirmwareVersion>1.33</FirmwareVersion><APIVersion>1.33</APIVersion><USBHostControllerVersion>2.0</USBHostControllerVersion><USBConnectionRoute>USB#ROOT_HUB20#4&f63975&0#{f18a0e88-c30c-11d0-8815-00a0c906bed8} + USB#VID_8087&PID_0024#5&365d106a&0&1#{f18a0e88-c30c-11d0-8815-00a0c906bed8}(1) + VID_2266&PID_0007(2)</USBConnectionRoute></ChronosDeviceInfo>;"<?xml version=""1.0""?>\n<Clock xmlns:dt=""urn:schemas-microsoft-com:datatypes""><Description dt:dt=""string"">E-Prime Primary Realtime Clock</Description><StartTime><Timestamp dt:dt=""int"">0</Timestamp><DateUtc dt:dt=""string"">2013-09-14T06:48:31Z</DateUtc></StartTime><FrequencyChanges><FrequencyChange><Frequency dt:dt=""r8"">3312832</Frequency><Timestamp dt:dt=""r8"">584023471147</Timestamp><Current dt:dt=""r8"">0</Current><DateUtc dt:dt=""string"">2013-09-14T06:48:31Z</DateUtc></FrequencyChange></FrequencyChanges></Clock>\n";EXP2.2_290421-121-1;59.951;1.0.0.367;1;Chronos;-91496789;Full;3.0.3.80;3.0.3.80;09-14-2013;14/09/2013 06:48;08:48:31;3.0.3.82;2;Chronos;;2;1;2;TESTVV;Generalbloc;;;;pretest;Chronos;37;5;VV_110521/915.png;9;1;37;15;blocVVstim;listVVTrial;;;;Chronos;0;;0;2;404796;200;;0;0;1;5;Chronos;0;0;404996;300;5;913;405909;1;5;Chronos;0;0;405296;0;5;613;405909;;;;;;;;;;;;;;;;;;;
EXP2.2_290421;121;1;Chronos;<ChronosDeviceInfo><FriendlyName>MyChronos</FriendlyName><DeviceIndex>1</DeviceIndex><SerialNumber>CHR-04301-1186</SerialNumber><EBNVersion>3.0.3.80</EBNVersion><FirmwareVersion>1.33</FirmwareVersion><APIVersion>1.33</APIVersion><USBHostControllerVersion>2.0</USBHostControllerVersion><USBConnectionRoute>USB#ROOT_HUB20#4&f63975&0#{f18a0e88-c30c-11d0-8815-00a0c906bed8} + USB#VID_8087&PID_0024#5&365d106a&0&1#{f18a0e88-c30c-11d0-8815-00a0c906bed8}(1) + VID_2266&PID_0007(2)</USBConnectionRoute></ChronosDeviceInfo>;"<?xml version=""1.0""?>\n<Clock xmlns:dt=""urn:schemas-microsoft-com:datatypes""><Description dt:dt=""string"">E-Prime Primary Realtime Clock</Description><StartTime><Timestamp dt:dt=""int"">0</Timestamp><DateUtc dt:dt=""string"">2013-09-14T06:48:31Z</DateUtc></StartTime><FrequencyChanges><FrequencyChange><Frequency dt:dt=""r8"">3312832</Frequency><Timestamp dt:dt=""r8"">584023471147</Timestamp><Current dt:dt=""r8"">0</Current><DateUtc dt:dt=""string"">2013-09-14T06:48:31Z</DateUtc></FrequencyChange></FrequencyChanges></Clock>\n";EXP2.2_290421-121-1;59.951;1.0.0.367;1;Chronos;-91496789;Full;3.0.3.80;3.0.3.80;09-14-2013;14/09/2013 06:48;08:48:31;3.0.3.82;2;Chronos;;2;1;2;TESTVV;Generalbloc;;;;pretest;Chronos;38;1;VV_110521/890.png;4;1;38;-10;blocVVstim;listVVTrial;;;;Chronos;0;;0;1;407448;200;;0;0;0;1;Chronos;0;0;407648;300;5;1153;408801;0;1;Chronos;0;0;407948;0;5;853;408801;;;;;;;;;;;;;;;;;;;
EXP2.2_290421;121;1;Chronos;<ChronosDeviceInfo><FriendlyName>MyChronos</FriendlyName><DeviceIndex>1</DeviceIndex><SerialNumber>CHR-04301-1186</SerialNumber><EBNVersion>3.0.3.80</EBNVersion><FirmwareVersion>1.33</FirmwareVersion><APIVersion>1.33</APIVersion><USBHostControllerVersion>2.0</USBHostControllerVersion><USBConnectionRoute>USB#ROOT_HUB20#4&f63975&0#{f18a0e88-c30c-11d0-8815-00a0c906bed8} + USB#VID_8087&PID_0024#5&365d106a&0&1#{f18a0e88-c30c-11d0-8815-00a0c906bed8}(1) + VID_2266&PID_0007(2)</USBConnectionRoute></ChronosDeviceInfo>;"<?xml version=""1.0""?>\n<Clock xmlns:dt=""urn:schemas-microsoft-com:datatypes""><Description dt:dt=""string"">E-Prime Primary Realtime Clock</Description><StartTime><Timestamp dt:dt=""int"">0</Timestamp><DateUtc dt:dt=""string"">2013-09-14T06:48:31Z</DateUtc></StartTime><FrequencyChanges><FrequencyChange><Frequency dt:dt=""r8"">3312832</Frequency><Timestamp dt:dt=""r8"">584023471147</Timestamp><Current dt:dt=""r8"">0</Current><DateUtc dt:dt=""string"">2013-09-14T06:48:31Z</DateUtc></FrequencyChange></FrequencyChanges></Clock>\n";EXP2.2_290421-121-1;59.951;1.0.0.367;1;Chronos;-91496789;Full;3.0.3.80;3.0.3.80;09-14-2013;14/09/2013 06:48;08:48:31;3.0.3.82;2;Chronos;;2;1;2;TESTVV;Generalbloc;;;;pretest;Chronos;39;5;VV_110521/920.png;10;1;39;20;blocVVstim;listVVTrial;;;;Chronos;0;;0;2;410334;200;;0;0;1;5;Chronos;0;0;410534;300;5;2851;413385;1;5;Chronos;0;0;410834;0;5;2551;413385;;;;;;;;;;;;;;;;;;;
EXP2.2_290421;121;1;Chronos;<ChronosDeviceInfo><FriendlyName>MyChronos</FriendlyName><DeviceIndex>1</DeviceIndex><SerialNumber>CHR-04301-1186</SerialNumber><EBNVersion>3.0.3.80</EBNVersion><FirmwareVersion>1.33</FirmwareVersion><APIVersion>1.33</APIVersion><USBHostControllerVersion>2.0</USBHostControllerVersion><USBConnectionRoute>USB#ROOT_HUB20#4&f63975&0#{f18a0e88-c30c-11d0-8815-00a0c906bed8} + USB#VID_8087&PID_0024#5&365d106a&0&1#{f18a0e88-c30c-11d0-8815-00a0c906bed8}(1) + VID_2266&PID_0007(2)</USBConnectionRoute></ChronosDeviceInfo>;"<?xml version=""1.0""?>\n<Clock xmlns:dt=""urn:schemas-microsoft-com:datatypes""><Description dt:dt=""string"">E-Prime Primary Realtime Clock</Description><StartTime><Timestamp dt:dt=""int"">0</Timestamp><DateUtc dt:dt=""string"">2013-09-14T06:48:31Z</DateUtc></StartTime><FrequencyChanges><FrequencyChange><Frequency dt:dt=""r8"">3312832</Frequency><Timestamp dt:dt=""r8"">584023471147</Timestamp><Current dt:dt=""r8"">0</Current><DateUtc dt:dt=""string"">2013-09-14T06:48:31Z</DateUtc></FrequencyChange></FrequencyChanges></Clock>\n";EXP2.2_290421-121-1;59.951;1.0.0.367;1;Chronos;-91496789;Full;3.0.3.80;3.0.3.80;09-14-2013;14/09/2013 06:48;08:48:31;3.0.3.82;2;Chronos;;2;1;2;TESTVV;Generalbloc;;;;pretest;Chronos;40;5;VV_110521/915.png;9;1;40;15;blocVVstim;listVVTrial;;;;Chronos;0;;0;2;414921;200;;0;0;1;5;Chronos;0;0;415121;300;5;1107;416228;1;5;Chronos;0;0;415421;0;5;807;416228;;;;;;;;;;;;;;;;;;;
EXP2.2_290421;121;1;Chronos;<ChronosDeviceInfo><FriendlyName>MyChronos</FriendlyName><DeviceIndex>1</DeviceIndex><SerialNumber>CHR-04301-1186</SerialNumber><EBNVersion>3.0.3.80</EBNVersion><FirmwareVersion>1.33</FirmwareVersion><APIVersion>1.33</APIVersion><USBHostControllerVersion>2.0</USBHostControllerVersion><USBConnectionRoute>USB#ROOT_HUB20#4&f63975&0#{f18a0e88-c30c-11d0-8815-00a0c906bed8} + USB#VID_8087&PID_0024#5&365d106a&0&1#{f18a0e88-c30c-11d0-8815-00a0c906bed8}(1) + VID_2266&PID_0007(2)</USBConnectionRoute></ChronosDeviceInfo>;"<?xml version=""1.0""?>\n<Clock xmlns:dt=""urn:schemas-microsoft-com:datatypes""><Description dt:dt=""string"">E-Prime Primary Realtime Clock</Description><StartTime><Timestamp dt:dt=""int"">0</Timestamp><DateUtc dt:dt=""string"">2013-09-14T06:48:31Z</DateUtc></StartTime><FrequencyChanges><FrequencyChange><Frequency dt:dt=""r8"">3312832</Frequency><Timestamp dt:dt=""r8"">584023471147</Timestamp><Current dt:dt=""r8"">0</Current><DateUtc dt:dt=""string"">2013-09-14T06:48:31Z</DateUtc></FrequencyChange></FrequencyChanges></Clock>\n";EXP2.2_290421-121-1;59.951;1.0.0.367;1;Chronos;-91496789;Full;3.0.3.80;3.0.3.80;09-14-2013;14/09/2013 06:48;08:48:31;3.0.3.82;2;Chronos;;2;1;2;TESTVV;Generalbloc;;;;pretest;Chronos;41;5;VV_110521/910.png;8;1;41;10;blocVVstim;listVVTrial;;;;Chronos;0;;0;1;417756;201;;0;0;1;5;Chronos;0;1;417957;300;5;2305;420262;1;5;Chronos;0;0;418257;0;5;2005;420262;;;;;;;;;;;;;;;;;;;
EXP2.2_290421;121;1;Chronos;<ChronosDeviceInfo><FriendlyName>MyChronos</FriendlyName><DeviceIndex>1</DeviceIndex><SerialNumber>CHR-04301-1186</SerialNumber><EBNVersion>3.0.3.80</EBNVersion><FirmwareVersion>1.33</FirmwareVersion><APIVersion>1.33</APIVersion><USBHostControllerVersion>2.0</USBHostControllerVersion><USBConnectionRoute>USB#ROOT_HUB20#4&f63975&0#{f18a0e88-c30c-11d0-8815-00a0c906bed8} + USB#VID_8087&PID_0024#5&365d106a&0&1#{f18a0e88-c30c-11d0-8815-00a0c906bed8}(1) + VID_2266&PID_0007(2)</USBConnectionRoute></ChronosDeviceInfo>;"<?xml version=""1.0""?>\n<Clock xmlns:dt=""urn:schemas-microsoft-com:datatypes""><Description dt:dt=""string"">E-Prime Primary Realtime Clock</Description><StartTime><Timestamp dt:dt=""int"">0</Timestamp><DateUtc dt:dt=""string"">2013-09-14T06:48:31Z</DateUtc></StartTime><FrequencyChanges><FrequencyChange><Frequency dt:dt=""r8"">3312832</Frequency><Timestamp dt:dt=""r8"">584023471147</Timestamp><Current dt:dt=""r8"">0</Current><DateUtc dt:dt=""string"">2013-09-14T06:48:31Z</DateUtc></FrequencyChange></FrequencyChanges></Clock>\n";EXP2.2_290421-121-1;59.951;1.0.0.367;1;Chronos;-91496789;Full;3.0.3.80;3.0.3.80;09-14-2013;14/09/2013 06:48;08:48:31;3.0.3.82;2;Chronos;;2;1;2;TESTVV;Generalbloc;;;;pretest;Chronos;42;5;VV_110521/910.png;8;1;42;10;blocVVstim;listVVTrial;;;;Chronos;0;;0;1;421793;200;;0;0;1;5;Chronos;0;0;421993;300;5;1095;423088;1;5;Chronos;1;0;422293;0;5;795;423088;;;;;;;;;;;;;;;;;;;
EXP2.2_290421;121;1;Chronos;<ChronosDeviceInfo><FriendlyName>MyChronos</FriendlyName><DeviceIndex>1</DeviceIndex><SerialNumber>CHR-04301-1186</SerialNumber><EBNVersion>3.0.3.80</EBNVersion><FirmwareVersion>1.33</FirmwareVersion><APIVersion>1.33</APIVersion><USBHostControllerVersion>2.0</USBHostControllerVersion><USBConnectionRoute>USB#ROOT_HUB20#4&f63975&0#{f18a0e88-c30c-11d0-8815-00a0c906bed8} + USB#VID_8087&PID_0024#5&365d106a&0&1#{f18a0e88-c30c-11d0-8815-00a0c906bed8}(1) + VID_2266&PID_0007(2)</USBConnectionRoute></ChronosDeviceInfo>;"<?xml version=""1.0""?>\n<Clock xmlns:dt=""urn:schemas-microsoft-com:datatypes""><Description dt:dt=""string"">E-Prime Primary Realtime Clock</Description><StartTime><Timestamp dt:dt=""int"">0</Timestamp><DateUtc dt:dt=""string"">2013-09-14T06:48:31Z</DateUtc></StartTime><FrequencyChanges><FrequencyChange><Frequency dt:dt=""r8"">3312832</Frequency><Timestamp dt:dt=""r8"">584023471147</Timestamp><Current dt:dt=""r8"">0</Current><DateUtc dt:dt=""string"">2013-09-14T06:48:31Z</DateUtc></FrequencyChange></FrequencyChanges></Clock>\n";EXP2.2_290421-121-1;59.951;1.0.0.367;1;Chronos;-91496789;Full;3.0.3.80;3.0.3.80;09-14-2013;14/09/2013 06:48;08:48:31;3.0.3.82;2;Chronos;;2;1;2;TESTVV;Generalbloc;;;;pretest;Chronos;43;5;VV_110521/920.png;10;1;43;20;blocVVstim;listVVTrial;;;;Chronos;0;;0;1;424612;200;;0;0;1;5;Chronos;0;0;424812;300;5;1748;426560;1;5;Chronos;0;0;425112;0;5;1448;426560;;;;;;;;;;;;;;;;;;;
EXP2.2_290421;121;1;Chronos;<ChronosDeviceInfo><FriendlyName>MyChronos</FriendlyName><DeviceIndex>1</DeviceIndex><SerialNumber>CHR-04301-1186</SerialNumber><EBNVersion>3.0.3.80</EBNVersion><FirmwareVersion>1.33</FirmwareVersion><APIVersion>1.33</APIVersion><USBHostControllerVersion>2.0</USBHostControllerVersion><USBConnectionRoute>USB#ROOT_HUB20#4&f63975&0#{f18a0e88-c30c-11d0-8815-00a0c906bed8} + USB#VID_8087&PID_0024#5&365d106a&0&1#{f18a0e88-c30c-11d0-8815-00a0c906bed8}(1) + VID_2266&PID_0007(2)</USBConnectionRoute></ChronosDeviceInfo>;"<?xml version=""1.0""?>\n<Clock xmlns:dt=""urn:schemas-microsoft-com:datatypes""><Description dt:dt=""string"">E-Prime Primary Realtime Clock</Description><StartTime><Timestamp dt:dt=""int"">0</Timestamp><DateUtc dt:dt=""string"">2013-09-14T06:48:31Z</DateUtc></StartTime><FrequencyChanges><FrequencyChange><Frequency dt:dt=""r8"">3312832</Frequency><Timestamp dt:dt=""r8"">584023471147</Timestamp><Current dt:dt=""r8"">0</Current><DateUtc dt:dt=""string"">2013-09-14T06:48:31Z</DateUtc></FrequencyChange></FrequencyChanges></Clock>\n";EXP2.2_290421-121-1;59.951;1.0.0.367;1;Chronos;-91496789;Full;3.0.3.80;3.0.3.80;09-14-2013;14/09/2013 06:48;08:48:31;3.0.3.82;2;Chronos;;2;1;2;TESTVV;Generalbloc;;;;pretest;Chronos;44;1;VV_110521/895.png;5;1;44;-5;blocVVstim;listVVTrial;;;;Chronos;0;;0;1;428098;200;;0;0;0;1;Chronos;0;0;428298;301;5;1393;429691;0;1;Chronos;0;1;428599;0;5;1092;429691;;;;;;;;;;;;;;;;;;;
EXP2.2_290421;121;1;Chronos;<ChronosDeviceInfo><FriendlyName>MyChronos</FriendlyName><DeviceIndex>1</DeviceIndex><SerialNumber>CHR-04301-1186</SerialNumber><EBNVersion>3.0.3.80</EBNVersion><FirmwareVersion>1.33</FirmwareVersion><APIVersion>1.33</APIVersion><USBHostControllerVersion>2.0</USBHostControllerVersion><USBConnectionRoute>USB#ROOT_HUB20#4&f63975&0#{f18a0e88-c30c-11d0-8815-00a0c906bed8} + USB#VID_8087&PID_0024#5&365d106a&0&1#{f18a0e88-c30c-11d0-8815-00a0c906bed8}(1) + VID_2266&PID_0007(2)</USBConnectionRoute></ChronosDeviceInfo>;"<?xml version=""1.0""?>\n<Clock xmlns:dt=""urn:schemas-microsoft-com:datatypes""><Description dt:dt=""string"">E-Prime Primary Realtime Clock</Description><StartTime><Timestamp dt:dt=""int"">0</Timestamp><DateUtc dt:dt=""string"">2013-09-14T06:48:31Z</DateUtc></StartTime><FrequencyChanges><FrequencyChange><Frequency dt:dt=""r8"">3312832</Frequency><Timestamp dt:dt=""r8"">584023471147</Timestamp><Current dt:dt=""r8"">0</Current><DateUtc dt:dt=""string"">2013-09-14T06:48:31Z</DateUtc></FrequencyChange></FrequencyChanges></Clock>\n";EXP2.2_290421-121-1;59.951;1.0.0.367;1;Chronos;-91496789;Full;3.0.3.80;3.0.3.80;09-14-2013;14/09/2013 06:48;08:48:31;3.0.3.82;2;Chronos;;2;1;2;TESTVV;Generalbloc;;;;pretest;Chronos;45;1;VV_110521/880.png;2;1;45;-20;blocVVstim;listVVTrial;;;;Chronos;0;;0;1;431234;200;;0;0;0;1;Chronos;0;0;431434;301;5;2181;433615;0;1;Chronos;0;1;431735;0;5;1880;433615;;;;;;;;;;;;;;;;;;;
EXP2.2_290421;121;1;Chronos;<ChronosDeviceInfo><FriendlyName>MyChronos</FriendlyName><DeviceIndex>1</DeviceIndex><SerialNumber>CHR-04301-1186</SerialNumber><EBNVersion>3.0.3.80</EBNVersion><FirmwareVersion>1.33</FirmwareVersion><APIVersion>1.33</APIVersion><USBHostControllerVersion>2.0</USBHostControllerVersion><USBConnectionRoute>USB#ROOT_HUB20#4&f63975&0#{f18a0e88-c30c-11d0-8815-00a0c906bed8} + USB#VID_8087&PID_0024#5&365d106a&0&1#{f18a0e88-c30c-11d0-8815-00a0c906bed8}(1) + VID_2266&PID_0007(2)</USBConnectionRoute></ChronosDeviceInfo>;"<?xml version=""1.0""?>\n<Clock xmlns:dt=""urn:schemas-microsoft-com:datatypes""><Description dt:dt=""string"">E-Prime Primary Realtime Clock</Description><StartTime><Timestamp dt:dt=""int"">0</Timestamp><DateUtc dt:dt=""string"">2013-09-14T06:48:31Z</DateUtc></StartTime><FrequencyChanges><FrequencyChange><Frequency dt:dt=""r8"">3312832</Frequency><Timestamp dt:dt=""r8"">584023471147</Timestamp><Current dt:dt=""r8"">0</Current><DateUtc dt:dt=""string"">2013-09-14T06:48:31Z</DateUtc></FrequencyChange></FrequencyChanges></Clock>\n";EXP2.2_290421-121-1;59.951;1.0.0.367;1;Chronos;-91496789;Full;3.0.3.80;3.0.3.80;09-14-2013;14/09/2013 06:48;08:48:31;3.0.3.82;2;Chronos;;2;1;2;TESTVV;Generalbloc;;;;pretest;Chronos;46;1;VV_110521/880.png;2;1;46;-20;blocVVstim;listVVTrial;;;;Chronos;0;;0;1;435154;200;;0;0;0;1;Chronos;0;0;435354;301;5;2032;437386;0;1;Chronos;0;1;435655;0;5;1731;437386;;;;;;;;;;;;;;;;;;;
EXP2.2_290421;121;1;Chronos;<ChronosDeviceInfo><FriendlyName>MyChronos</FriendlyName><DeviceIndex>1</DeviceIndex><SerialNumber>CHR-04301-1186</SerialNumber><EBNVersion>3.0.3.80</EBNVersion><FirmwareVersion>1.33</FirmwareVersion><APIVersion>1.33</APIVersion><USBHostControllerVersion>2.0</USBHostControllerVersion><USBConnectionRoute>USB#ROOT_HUB20#4&f63975&0#{f18a0e88-c30c-11d0-8815-00a0c906bed8} + USB#VID_8087&PID_0024#5&365d106a&0&1#{f18a0e88-c30c-11d0-8815-00a0c906bed8}(1) + VID_2266&PID_0007(2)</USBConnectionRoute></ChronosDeviceInfo>;"<?xml version=""1.0""?>\n<Clock xmlns:dt=""urn:schemas-microsoft-com:datatypes""><Description dt:dt=""string"">E-Prime Primary Realtime Clock</Description><StartTime><Timestamp dt:dt=""int"">0</Timestamp><DateUtc dt:dt=""string"">2013-09-14T06:48:31Z</DateUtc></StartTime><FrequencyChanges><FrequencyChange><Frequency dt:dt=""r8"">3312832</Frequency><Timestamp dt:dt=""r8"">584023471147</Timestamp><Current dt:dt=""r8"">0</Current><DateUtc dt:dt=""string"">2013-09-14T06:48:31Z</DateUtc></FrequencyChange></FrequencyChanges></Clock>\n";EXP2.2_290421-121-1;59.951;1.0.0.367;1;Chronos;-91496789;Full;3.0.3.80;3.0.3.80;09-14-2013;14/09/2013 06:48;08:48:31;3.0.3.82;2;Chronos;;2;1;2;TESTVV;Generalbloc;;;;pretest;Chronos;47;1;VV_110521/895.png;5;1;47;-5;blocVVstim;listVVTrial;;;;Chronos;0;;0;1;438924;200;;0;0;0;1;Chronos;0;0;439124;300;5;2211;441335;0;1;Chronos;0;0;439424;0;5;1911;441335;;;;;;;;;;;;;;;;;;;
EXP2.2_290421;121;1;Chronos;<ChronosDeviceInfo><FriendlyName>MyChronos</FriendlyName><DeviceIndex>1</DeviceIndex><SerialNumber>CHR-04301-1186</SerialNumber><EBNVersion>3.0.3.80</EBNVersion><FirmwareVersion>1.33</FirmwareVersion><APIVersion>1.33</APIVersion><USBHostControllerVersion>2.0</USBHostControllerVersion><USBConnectionRoute>USB#ROOT_HUB20#4&f63975&0#{f18a0e88-c30c-11d0-8815-00a0c906bed8} + USB#VID_8087&PID_0024#5&365d106a&0&1#{f18a0e88-c30c-11d0-8815-00a0c906bed8}(1) + VID_2266&PID_0007(2)</USBConnectionRoute></ChronosDeviceInfo>;"<?xml version=""1.0""?>\n<Clock xmlns:dt=""urn:schemas-microsoft-com:datatypes""><Description dt:dt=""string"">E-Prime Primary Realtime Clock</Description><StartTime><Timestamp dt:dt=""int"">0</Timestamp><DateUtc dt:dt=""string"">2013-09-14T06:48:31Z</DateUtc></StartTime><FrequencyChanges><FrequencyChange><Frequency dt:dt=""r8"">3312832</Frequency><Timestamp dt:dt=""r8"">584023471147</Timestamp><Current dt:dt=""r8"">0</Current><DateUtc dt:dt=""string"">2013-09-14T06:48:31Z</DateUtc></FrequencyChange></FrequencyChanges></Clock>\n";EXP2.2_290421-121-1;59.951;1.0.0.367;1;Chronos;-91496789;Full;3.0.3.80;3.0.3.80;09-14-2013;14/09/2013 06:48;08:48:31;3.0.3.82;2;Chronos;;2;1;2;TESTVV;Generalbloc;;;;pretest;Chronos;48;1;VV_110521/895.png;5;1;48;-5;blocVVstim;listVVTrial;;;;Chronos;0;;1;1;442860;201;;0;0;0;1;Chronos;0;1;443061;300;5;1452;444513;0;1;Chronos;0;0;443361;0;5;1152;444513;;;;;;;;;;;;;;;;;;;
EXP2.2_290421;121;1;Chronos;<ChronosDeviceInfo><FriendlyName>MyChronos</FriendlyName><DeviceIndex>1</DeviceIndex><SerialNumber>CHR-04301-1186</SerialNumber><EBNVersion>3.0.3.80</EBNVersion><FirmwareVersion>1.33</FirmwareVersion><APIVersion>1.33</APIVersion><USBHostControllerVersion>2.0</USBHostControllerVersion><USBConnectionRoute>USB#ROOT_HUB20#4&f63975&0#{f18a0e88-c30c-11d0-8815-00a0c906bed8} + USB#VID_8087&PID_0024#5&365d106a&0&1#{f18a0e88-c30c-11d0-8815-00a0c906bed8}(1) + VID_2266&PID_0007(2)</USBConnectionRoute></ChronosDeviceInfo>;"<?xml version=""1.0""?>\n<Clock xmlns:dt=""urn:schemas-microsoft-com:datatypes""><Description dt:dt=""string"">E-Prime Primary Realtime Clock</Description><StartTime><Timestamp dt:dt=""int"">0</Timestamp><DateUtc dt:dt=""string"">2013-09-14T06:48:31Z</DateUtc></StartTime><FrequencyChanges><FrequencyChange><Frequency dt:dt=""r8"">3312832</Frequency><Timestamp dt:dt=""r8"">584023471147</Timestamp><Current dt:dt=""r8"">0</Current><DateUtc dt:dt=""string"">2013-09-14T06:48:31Z</DateUtc></FrequencyChange></FrequencyChanges></Clock>\n";EXP2.2_290421-121-1;59.951;1.0.0.367;1;Chronos;-91496789;Full;3.0.3.80;3.0.3.80;09-14-2013;14/09/2013 06:48;08:48:31;3.0.3.82;2;Chronos;;2;1;2;TESTVV;Generalbloc;;;;pretest;Chronos;49;5;VV_110521/920.png;10;1;49;20;blocVVstim;listVVTrial;;;;Chronos;0;;0;1;446046;201;;0;0;1;5;Chronos;0;1;446247;300;5;1433;447680;1;5;Chronos;0;0;446547;0;5;1133;447680;;;;;;;;;;;;;;;;;;;
EXP2.2_290421;121;1;Chronos;<ChronosDeviceInfo><FriendlyName>MyChronos</FriendlyName><DeviceIndex>1</DeviceIndex><SerialNumber>CHR-04301-1186</SerialNumber><EBNVersion>3.0.3.80</EBNVersion><FirmwareVersion>1.33</FirmwareVersion><APIVersion>1.33</APIVersion><USBHostControllerVersion>2.0</USBHostControllerVersion><USBConnectionRoute>USB#ROOT_HUB20#4&f63975&0#{f18a0e88-c30c-11d0-8815-00a0c906bed8} + USB#VID_8087&PID_0024#5&365d106a&0&1#{f18a0e88-c30c-11d0-8815-00a0c906bed8}(1) + VID_2266&PID_0007(2)</USBConnectionRoute></ChronosDeviceInfo>;"<?xml version=""1.0""?>\n<Clock xmlns:dt=""urn:schemas-microsoft-com:datatypes""><Description dt:dt=""string"">E-Prime Primary Realtime Clock</Description><StartTime><Timestamp dt:dt=""int"">0</Timestamp><DateUtc dt:dt=""string"">2013-09-14T06:48:31Z</DateUtc></StartTime><FrequencyChanges><FrequencyChange><Frequency dt:dt=""r8"">3312832</Frequency><Timestamp dt:dt=""r8"">584023471147</Timestamp><Current dt:dt=""r8"">0</Current><DateUtc dt:dt=""string"">2013-09-14T06:48:31Z</DateUtc></FrequencyChange></FrequencyChanges></Clock>\n";EXP2.2_290421-121-1;59.951;1.0.0.367;1;Chronos;-91496789;Full;3.0.3.80;3.0.3.80;09-14-2013;14/09/2013 06:48;08:48:31;3.0.3.82;2;Chronos;;2;1;2;TESTVV;Generalbloc;;;;pretest;Chronos;50;1;VV_110521/895.png;5;1;50;-5;blocVVstim;listVVTrial;;;;Chronos;0;;0;2;449216;200;;0;0;1;1;Chronos;0;0;449416;300;1;1188;450604;1;1;Chronos;0;0;449716;0;1;888;450604;;;;;;;;;;;;;;;;;;;
EXP2.2_290421;121;1;Chronos;<ChronosDeviceInfo><FriendlyName>MyChronos</FriendlyName><DeviceIndex>1</DeviceIndex><SerialNumber>CHR-04301-1186</SerialNumber><EBNVersion>3.0.3.80</EBNVersion><FirmwareVersion>1.33</FirmwareVersion><APIVersion>1.33</APIVersion><USBHostControllerVersion>2.0</USBHostControllerVersion><USBConnectionRoute>USB#ROOT_HUB20#4&f63975&0#{f18a0e88-c30c-11d0-8815-00a0c906bed8} + USB#VID_8087&PID_0024#5&365d106a&0&1#{f18a0e88-c30c-11d0-8815-00a0c906bed8}(1) + VID_2266&PID_0007(2)</USBConnectionRoute></ChronosDeviceInfo>;"<?xml version=""1.0""?>\n<Clock xmlns:dt=""urn:schemas-microsoft-com:datatypes""><Description dt:dt=""string"">E-Prime Primary Realtime Clock</Description><StartTime><Timestamp dt:dt=""int"">0</Timestamp><DateUtc dt:dt=""string"">2013-09-14T06:48:31Z</DateUtc></StartTime><FrequencyChanges><FrequencyChange><Frequency dt:dt=""r8"">3312832</Frequency><Timestamp dt:dt=""r8"">584023471147</Timestamp><Current dt:dt=""r8"">0</Current><DateUtc dt:dt=""string"">2013-09-14T06:48:31Z</DateUtc></FrequencyChange></FrequencyChanges></Clock>\n";EXP2.2_290421-121-1;59.951;1.0.0.367;1;Chronos;-91496789;Full;3.0.3.80;3.0.3.80;09-14-2013;14/09/2013 06:48;08:48:31;3.0.3.82;2;Chronos;;2;1;2;TESTVV;Generalbloc;;;;pretest;Chronos;51;1;VV_110521/890.png;4;1;51;-10;blocVVstim;listVVTrial;;;;Chronos;0;;0;1;452135;200;;0;0;1;1;Chronos;0;0;452335;300;1;1116;453451;1;1;Chronos;0;0;452635;0;1;816;453451;;;;;;;;;;;;;;;;;;;
EXP2.2_290421;121;1;Chronos;<ChronosDeviceInfo><FriendlyName>MyChronos</FriendlyName><DeviceIndex>1</DeviceIndex><SerialNumber>CHR-04301-1186</SerialNumber><EBNVersion>3.0.3.80</EBNVersion><FirmwareVersion>1.33</FirmwareVersion><APIVersion>1.33</APIVersion><USBHostControllerVersion>2.0</USBHostControllerVersion><USBConnectionRoute>USB#ROOT_HUB20#4&f63975&0#{f18a0e88-c30c-11d0-8815-00a0c906bed8} + USB#VID_8087&PID_0024#5&365d106a&0&1#{f18a0e88-c30c-11d0-8815-00a0c906bed8}(1) + VID_2266&PID_0007(2)</USBConnectionRoute></ChronosDeviceInfo>;"<?xml version=""1.0""?>\n<Clock xmlns:dt=""urn:schemas-microsoft-com:datatypes""><Description dt:dt=""string"">E-Prime Primary Realtime Clock</Description><StartTime><Timestamp dt:dt=""int"">0</Timestamp><DateUtc dt:dt=""string"">2013-09-14T06:48:31Z</DateUtc></StartTime><FrequencyChanges><FrequencyChange><Frequency dt:dt=""r8"">3312832</Frequency><Timestamp dt:dt=""r8"">584023471147</Timestamp><Current dt:dt=""r8"">0</Current><DateUtc dt:dt=""string"">2013-09-14T06:48:31Z</DateUtc></FrequencyChange></FrequencyChanges></Clock>\n";EXP2.2_290421-121-1;59.951;1.0.0.367;1;Chronos;-91496789;Full;3.0.3.80;3.0.3.80;09-14-2013;14/09/2013 06:48;08:48:31;3.0.3.82;2;Chronos;;2;1;2;TESTVV;Generalbloc;;;;pretest;Chronos;52;5;VV_110521/925.png;11;1;52;25;blocVVstim;listVVTrial;;;;Chronos;0;;0;1;454987;200;;0;0;0;5;Chronos;0;0;455187;301;1;4292;459479;0;5;Chronos;0;1;455488;0;1;3991;459479;;;;;;;;;;;;;;;;;;;
EXP2.2_290421;121;1;Chronos;<ChronosDeviceInfo><FriendlyName>MyChronos</FriendlyName><DeviceIndex>1</DeviceIndex><SerialNumber>CHR-04301-1186</SerialNumber><EBNVersion>3.0.3.80</EBNVersion><FirmwareVersion>1.33</FirmwareVersion><APIVersion>1.33</APIVersion><USBHostControllerVersion>2.0</USBHostControllerVersion><USBConnectionRoute>USB#ROOT_HUB20#4&f63975&0#{f18a0e88-c30c-11d0-8815-00a0c906bed8} + USB#VID_8087&PID_0024#5&365d106a&0&1#{f18a0e88-c30c-11d0-8815-00a0c906bed8}(1) + VID_2266&PID_0007(2)</USBConnectionRoute></ChronosDeviceInfo>;"<?xml version=""1.0""?>\n<Clock xmlns:dt=""urn:schemas-microsoft-com:datatypes""><Description dt:dt=""string"">E-Prime Primary Realtime Clock</Description><StartTime><Timestamp dt:dt=""int"">0</Timestamp><DateUtc dt:dt=""string"">2013-09-14T06:48:31Z</DateUtc></StartTime><FrequencyChanges><FrequencyChange><Frequency dt:dt=""r8"">3312832</Frequency><Timestamp dt:dt=""r8"">584023471147</Timestamp><Current dt:dt=""r8"">0</Current><DateUtc dt:dt=""string"">2013-09-14T06:48:31Z</DateUtc></FrequencyChange></FrequencyChanges></Clock>\n";EXP2.2_290421-121-1;59.951;1.0.0.367;1;Chronos;-91496789;Full;3.0.3.80;3.0.3.80;09-14-2013;14/09/2013 06:48;08:48:31;3.0.3.82;2;Chronos;;2;1;2;TESTVV;Generalbloc;;;;pretest;Chronos;53;15;VV_110521/900.png;6;1;53;0;blocVVstim;listVVTrial;;;;Chronos;0;;0;1;461009;200;;0;0;0;15;Chronos;0;0;461209;300;5;942;462151;0;15;Chronos;0;0;461509;0;5;642;462151;;;;;;;;;;;;;;;;;;;
EXP2.2_290421;121;1;Chronos;<ChronosDeviceInfo><FriendlyName>MyChronos</FriendlyName><DeviceIndex>1</DeviceIndex><SerialNumber>CHR-04301-1186</SerialNumber><EBNVersion>3.0.3.80</EBNVersion><FirmwareVersion>1.33</FirmwareVersion><APIVersion>1.33</APIVersion><USBHostControllerVersion>2.0</USBHostControllerVersion><USBConnectionRoute>USB#ROOT_HUB20#4&f63975&0#{f18a0e88-c30c-11d0-8815-00a0c906bed8} + USB#VID_8087&PID_0024#5&365d106a&0&1#{f18a0e88-c30c-11d0-8815-00a0c906bed8}(1) + VID_2266&PID_0007(2)</USBConnectionRoute></ChronosDeviceInfo>;"<?xml version=""1.0""?>\n<Clock xmlns:dt=""urn:schemas-microsoft-com:datatypes""><Description dt:dt=""string"">E-Prime Primary Realtime Clock</Description><StartTime><Timestamp dt:dt=""int"">0</Timestamp><DateUtc dt:dt=""string"">2013-09-14T06:48:31Z</DateUtc></StartTime><FrequencyChanges><FrequencyChange><Frequency dt:dt=""r8"">3312832</Frequency><Timestamp dt:dt=""r8"">584023471147</Timestamp><Current dt:dt=""r8"">0</Current><DateUtc dt:dt=""string"">2013-09-14T06:48:31Z</DateUtc></FrequencyChange></FrequencyChanges></Clock>\n";EXP2.2_290421-121-1;59.951;1.0.0.367;1;Chronos;-91496789;Full;3.0.3.80;3.0.3.80;09-14-2013;14/09/2013 06:48;08:48:31;3.0.3.82;2;Chronos;;2;1;2;TESTVV;Generalbloc;;;;pretest;Chronos;54;15;VV_110521/900.png;6;1;54;0;blocVVstim;listVVTrial;;;;Chronos;0;;0;2;463678;200;;0;0;0;15;Chronos;0;0;463878;300;5;944;464822;0;15;Chronos;0;0;464178;0;5;644;464822;;;;;;;;;;;;;;;;;;;
EXP2.2_290421;121;1;Chronos;<ChronosDeviceInfo><FriendlyName>MyChronos</FriendlyName><DeviceIndex>1</DeviceIndex><SerialNumber>CHR-04301-1186</SerialNumber><EBNVersion>3.0.3.80</EBNVersion><FirmwareVersion>1.33</FirmwareVersion><APIVersion>1.33</APIVersion><USBHostControllerVersion>2.0</USBHostControllerVersion><USBConnectionRoute>USB#ROOT_HUB20#4&f63975&0#{f18a0e88-c30c-11d0-8815-00a0c906bed8} + USB#VID_8087&PID_0024#5&365d106a&0&1#{f18a0e88-c30c-11d0-8815-00a0c906bed8}(1) + VID_2266&PID_0007(2)</USBConnectionRoute></ChronosDeviceInfo>;"<?xml version=""1.0""?>\n<Clock xmlns:dt=""urn:schemas-microsoft-com:datatypes""><Description dt:dt=""string"">E-Prime Primary Realtime Clock</Description><StartTime><Timestamp dt:dt=""int"">0</Timestamp><DateUtc dt:dt=""string"">2013-09-14T06:48:31Z</DateUtc></StartTime><FrequencyChanges><FrequencyChange><Frequency dt:dt=""r8"">3312832</Frequency><Timestamp dt:dt=""r8"">584023471147</Timestamp><Current dt:dt=""r8"">0</Current><DateUtc dt:dt=""string"">2013-09-14T06:48:31Z</DateUtc></FrequencyChange></FrequencyChanges></Clock>\n";EXP2.2_290421-121-1;59.951;1.0.0.367;1;Chronos;-91496789;Full;3.0.3.80;3.0.3.80;09-14-2013;14/09/2013 06:48;08:48:31;3.0.3.82;2;Chronos;;2;1;2;TESTVV;Generalbloc;;;;pretest;Chronos;55;5;VV_110521/905.png;7;1;55;5;blocVVstim;listVVTrial;;;;Chronos;0;;0;2;466347;200;;0;0;1;5;Chronos;0;0;466547;300;5;1182;467729;1;5;Chronos;0;0;466847;0;5;882;467729;;;;;;;;;;;;;;;;;;;
