ExperimentName;Subject;Session;calibrage.DEVICE[Session];Chronos.BoxInfo;Clock.Information;DataFile.Basename;Display.RefreshRate;ExperimentVersion;Group;Hello.DEVICE;RandomSeed;RuntimeCapabilities;RuntimeVersion;RuntimeVersionExpected;SessionDate;SessionStartDateTimeUtc;SessionTime;StudioVersion;Block;calibrage.DEVICE[Block];EndTraining.DEVICE;Generalbloc;Generalbloc.Cycle;Generalbloc.Sample;Procedure[Block];Running[Block];TextDisplay1.DEVICE;TextDisplay2.DEVICE;TextTraining.DEVICE;time;VVInst.DEVICE[Block];Trial;correct;image;listVVTrial;listVVTrial.Cycle;listVVTrial.Sample;offset;Procedure[Trial];Running[Trial];SpatialTaskTraining;SpatialTaskTraining.Cycle;SpatialTaskTraining.Sample;VVInst.DEVICE[Trial];vvstimnoresp.ACC;vvstimnoresp.CRESP;vvstimnoresp.DurationError;vvstimnoresp.OnsetDelay;vvstimnoresp.OnsetTime;vvstimnoresp.OnsetToOnsetTime;vvstimnoresp.RESP;vvstimnoresp.RT;vvstimnoresp.RTTime;vvstimresp1.ACC;vvstimresp1.CRESP;vvstimresp1.DEVICE;vvstimresp1.DurationError;vvstimresp1.OnsetDelay;vvstimresp1.OnsetTime;vvstimresp1.OnsetToOnsetTime;vvstimresp1.RESP;vvstimresp1.RT;vvstimresp1.RTTime;vvstimresp2.ACC;vvstimresp2.CRESP;vvstimresp2.DEVICE;vvstimresp2.DurationError;vvstimresp2.OnsetDelay;vvstimresp2.OnsetTime;vvstimresp2.OnsetToOnsetTime;vvstimresp2.RESP;vvstimresp2.RT;vvstimresp2.RTTime;SubTrial;LISTVVRANDOM1;LISTVVRANDOM1.Cycle;LISTVVRANDOM1.Sample;LISTVVRANDOM2;Procedure[SubTrial];Running[SubTrial];VVR;VVRANDOM;VVRANDOMRESP.ACC;VVRANDOMRESP.CRESP;VVRANDOMRESP.DEVICE;VVRANDOMRESP.DurationError;VVRANDOMRESP.OnsetDelay;VVRANDOMRESP.OnsetTime;VVRANDOMRESP.OnsetToOnsetTime;VVRANDOMRESP.RESP;VVRANDOMRESP.RT;VVRANDOMRESP.RTTime
EXP2.2_290421;122;1;Chronos;<ChronosDeviceInfo><FriendlyName>MyChronos</FriendlyName><DeviceIndex>1</DeviceIndex><SerialNumber>CHR-04301-1186</SerialNumber><EBNVersion>3.0.3.80</EBNVersion><FirmwareVersion>1.33</FirmwareVersion><APIVersion>1.33</APIVersion><USBHostControllerVersion>2.0</USBHostControllerVersion><USBConnectionRoute>USB#ROOT_HUB20#4&f63975&0#{f18a0e88-c30c-11d0-8815-00a0c906bed8} + USB#VID_8087&PID_0024#5&365d106a&0&1#{f18a0e88-c30c-11d0-8815-00a0c906bed8}(1) + VID_2266&PID_0007(2)</USBConnectionRoute></ChronosDeviceInfo>;"<?xml version=""1.0""?>\n<Clock xmlns:dt=""urn:schemas-microsoft-com:datatypes""><Description dt:dt=""string"">E-Prime Primary Realtime Clock</Description><StartTime><Timestamp dt:dt=""int"">0</Timestamp><DateUtc dt:dt=""string"">2013-09-14T07:42:29Z</DateUtc></StartTime><FrequencyChanges><FrequencyChange><Frequency dt:dt=""r8"">3312832</Frequency><Timestamp dt:dt=""r8"">594750072215</Timestamp><Current dt:dt=""r8"">0</Current><DateUtc dt:dt=""string"">2013-09-14T07:42:29Z</DateUtc></FrequencyChange></FrequencyChanges></Clock>\n";EXP2.2_290421-122-1;59.951;1.0.0.368;1;Chronos;2045189154;Full;3.0.3.80;3.0.3.80;09-14-2013;14/09/2013 07:42;09:42:29;3.0.3.82;1;Chronos;Chronos;1;1;1;Training;Generalbloc;;;Chronos;pretest;;1;;;;;;;TRAININGVV;SpatialTaskTraining;1;1;1;Chronos;;;;;;;;;;;;;;;;;;;;;;;;;;;;;;1;1;1;1;1;blocVVstimTraining;LISTVVRANDOM1;VV_110521/875.png;VV_110521/880.png;0;;Chronos;-999999;0;925951;0;5;21295;947246
EXP2.2_290421;122;1;Chronos;<ChronosDeviceInfo><FriendlyName>MyChronos</FriendlyName><DeviceIndex>1</DeviceIndex><SerialNumber>CHR-04301-1186</SerialNumber><EBNVersion>3.0.3.80</EBNVersion><FirmwareVersion>1.33</FirmwareVersion><APIVersion>1.33</APIVersion><USBHostControllerVersion>2.0</USBHostControllerVersion><USBConnectionRoute>USB#ROOT_HUB20#4&f63975&0#{f18a0e88-c30c-11d0-8815-00a0c906bed8} + USB#VID_8087&PID_0024#5&365d106a&0&1#{f18a0e88-c30c-11d0-8815-00a0c906bed8}(1) + VID_2266&PID_0007(2)</USBConnectionRoute></ChronosDeviceInfo>;"<?xml version=""1.0""?>\n<Clock xmlns:dt=""urn:schemas-microsoft-com:datatypes""><Description dt:dt=""string"">E-Prime Primary Realtime Clock</Description><StartTime><Timestamp dt:dt=""int"">0</Timestamp><DateUtc dt:dt=""string"">2013-09-14T07:42:29Z</DateUtc></StartTime><FrequencyChanges><FrequencyChange><Frequency dt:dt=""r8"">3312832</Frequency><Timestamp dt:dt=""r8"">594750072215</Timestamp><Current dt:dt=""r8"">0</Current><DateUtc dt:dt=""string"">2013-09-14T07:42:29Z</DateUtc></FrequencyChange></FrequencyChanges></Clock>\n";EXP2.2_290421-122-1;59.951;1.0.0.368;1;Chronos;2045189154;Full;3.0.3.80;3.0.3.80;09-14-2013;14/09/2013 07:42;09:42:29;3.0.3.82;1;Chronos;Chronos;1;1;1;Training;Generalbloc;;;Chronos;pretest;;1;;;;;;;TRAININGVV;SpatialTaskTraining;1;1;1;Chronos;;;;;;;;;;;;;;;;;;;;;;;;;;;;;;2;1;1;2;3;blocVVstimTraining;LISTVVRANDOM1;VV_110521/885.png;VV_110521/890.png;0;;Chronos;-999999;0;949287;0;1;6110;955397
EXP2.2_290421;122;1;Chronos;<ChronosDeviceInfo><FriendlyName>MyChronos</FriendlyName><DeviceIndex>1</DeviceIndex><SerialNumber>CHR-04301-1186</SerialNumber><EBNVersion>3.0.3.80</EBNVersion><FirmwareVersion>1.33</FirmwareVersion><APIVersion>1.33</APIVersion><USBHostControllerVersion>2.0</USBHostControllerVersion><USBConnectionRoute>USB#ROOT_HUB20#4&f63975&0#{f18a0e88-c30c-11d0-8815-00a0c906bed8} + USB#VID_8087&PID_0024#5&365d106a&0&1#{f18a0e88-c30c-11d0-8815-00a0c906bed8}(1) + VID_2266&PID_0007(2)</USBConnectionRoute></ChronosDeviceInfo>;"<?xml version=""1.0""?>\n<Clock xmlns:dt=""urn:schemas-microsoft-com:datatypes""><Description dt:dt=""string"">E-Prime Primary Realtime Clock</Description><StartTime><Timestamp dt:dt=""int"">0</Timestamp><DateUtc dt:dt=""string"">2013-09-14T07:42:29Z</DateUtc></StartTime><FrequencyChanges><FrequencyChange><Frequency dt:dt=""r8"">3312832</Frequency><Timestamp dt:dt=""r8"">594750072215</Timestamp><Current dt:dt=""r8"">0</Current><DateUtc dt:dt=""string"">2013-09-14T07:42:29Z</DateUtc></FrequencyChange></FrequencyChanges></Clock>\n";EXP2.2_290421-122-1;59.951;1.0.0.368;1;Chronos;2045189154;Full;3.0.3.80;3.0.3.80;09-14-2013;14/09/2013 07:42;09:42:29;3.0.3.82;1;Chronos;Chronos;1;1;1;Training;Generalbloc;;;Chronos;pretest;;1;;;;;;;TRAININGVV;SpatialTaskTraining;1;1;1;Chronos;;;;;;;;;;;;;;;;;;;;;;;;;;;;;;3;1;1;3;5;blocVVstimTraining;LISTVVRANDOM1;VV_110521/895.png;VV_110521/900.png;0;;Chronos;-999999;0;957427;0;5;710;958137
EXP2.2_290421;122;1;Chronos;<ChronosDeviceInfo><FriendlyName>MyChronos</FriendlyName><DeviceIndex>1</DeviceIndex><SerialNumber>CHR-04301-1186</SerialNumber><EBNVersion>3.0.3.80</EBNVersion><FirmwareVersion>1.33</FirmwareVersion><APIVersion>1.33</APIVersion><USBHostControllerVersion>2.0</USBHostControllerVersion><USBConnectionRoute>USB#ROOT_HUB20#4&f63975&0#{f18a0e88-c30c-11d0-8815-00a0c906bed8} + USB#VID_8087&PID_0024#5&365d106a&0&1#{f18a0e88-c30c-11d0-8815-00a0c906bed8}(1) + VID_2266&PID_0007(2)</USBConnectionRoute></ChronosDeviceInfo>;"<?xml version=""1.0""?>\n<Clock xmlns:dt=""urn:schemas-microsoft-com:datatypes""><Description dt:dt=""string"">E-Prime Primary Realtime Clock</Description><StartTime><Timestamp dt:dt=""int"">0</Timestamp><DateUtc dt:dt=""string"">2013-09-14T07:42:29Z</DateUtc></StartTime><FrequencyChanges><FrequencyChange><Frequency dt:dt=""r8"">3312832</Frequency><Timestamp dt:dt=""r8"">594750072215</Timestamp><Current dt:dt=""r8"">0</Current><DateUtc dt:dt=""string"">2013-09-14T07:42:29Z</DateUtc></FrequencyChange></FrequencyChanges></Clock>\n";EXP2.2_290421-122-1;59.951;1.0.0.368;1;Chronos;2045189154;Full;3.0.3.80;3.0.3.80;09-14-2013;14/09/2013 07:42;09:42:29;3.0.3.82;1;Chronos;Chronos;1;1;1;Training;Generalbloc;;;Chronos;pretest;;1;;;;;;;TRAININGVV;SpatialTaskTraining;1;1;1;Chronos;;;;;;;;;;;;;;;;;;;;;;;;;;;;;;4;1;1;4;7;blocVVstimTraining;LISTVVRANDOM1;VV_110521/905.png;VV_110521/910.png;0;;Chronos;-999999;0;960163;0;5;583;960746
EXP2.2_290421;122;1;Chronos;<ChronosDeviceInfo><FriendlyName>MyChronos</FriendlyName><DeviceIndex>1</DeviceIndex><SerialNumber>CHR-04301-1186</SerialNumber><EBNVersion>3.0.3.80</EBNVersion><FirmwareVersion>1.33</FirmwareVersion><APIVersion>1.33</APIVersion><USBHostControllerVersion>2.0</USBHostControllerVersion><USBConnectionRoute>USB#ROOT_HUB20#4&f63975&0#{f18a0e88-c30c-11d0-8815-00a0c906bed8} + USB#VID_8087&PID_0024#5&365d106a&0&1#{f18a0e88-c30c-11d0-8815-00a0c906bed8}(1) + VID_2266&PID_0007(2)</USBConnectionRoute></ChronosDeviceInfo>;"<?xml version=""1.0""?>\n<Clock xmlns:dt=""urn:schemas-microsoft-com:datatypes""><Description dt:dt=""string"">E-Prime Primary Realtime Clock</Description><StartTime><Timestamp dt:dt=""int"">0</Timestamp><DateUtc dt:dt=""string"">2013-09-14T07:42:29Z</DateUtc></StartTime><FrequencyChanges><FrequencyChange><Frequency dt:dt=""r8"">3312832</Frequency><Timestamp dt:dt=""r8"">594750072215</Timestamp><Current dt:dt=""r8"">0</Current><DateUtc dt:dt=""string"">2013-09-14T07:42:29Z</DateUtc></FrequencyChange></FrequencyChanges></Clock>\n";EXP2.2_290421-122-1;59.951;1.0.0.368;1;Chronos;2045189154;Full;3.0.3.80;3.0.3.80;09-14-2013;14/09/2013 07:42;09:42:29;3.0.3.82;1;Chronos;Chronos;1;1;1;Training;Generalbloc;;;Chronos;pretest;;1;;;;;;;TRAININGVV;SpatialTaskTraining;1;1;1;Chronos;;;;;;;;;;;;;;;;;;;;;;;;;;;;;;5;1;1;5;9;blocVVstimTraining;LISTVVRANDOM1;VV_110521/915.png;VV_110521/920.png;0;;Chronos;-999999;1;962782;0;5;412;963194
EXP2.2_290421;122;1;Chronos;<ChronosDeviceInfo><FriendlyName>MyChronos</FriendlyName><DeviceIndex>1</DeviceIndex><SerialNumber>CHR-04301-1186</SerialNumber><EBNVersion>3.0.3.80</EBNVersion><FirmwareVersion>1.33</FirmwareVersion><APIVersion>1.33</APIVersion><USBHostControllerVersion>2.0</USBHostControllerVersion><USBConnectionRoute>USB#ROOT_HUB20#4&f63975&0#{f18a0e88-c30c-11d0-8815-00a0c906bed8} + USB#VID_8087&PID_0024#5&365d106a&0&1#{f18a0e88-c30c-11d0-8815-00a0c906bed8}(1) + VID_2266&PID_0007(2)</USBConnectionRoute></ChronosDeviceInfo>;"<?xml version=""1.0""?>\n<Clock xmlns:dt=""urn:schemas-microsoft-com:datatypes""><Description dt:dt=""string"">E-Prime Primary Realtime Clock</Description><StartTime><Timestamp dt:dt=""int"">0</Timestamp><DateUtc dt:dt=""string"">2013-09-14T07:42:29Z</DateUtc></StartTime><FrequencyChanges><FrequencyChange><Frequency dt:dt=""r8"">3312832</Frequency><Timestamp dt:dt=""r8"">594750072215</Timestamp><Current dt:dt=""r8"">0</Current><DateUtc dt:dt=""string"">2013-09-14T07:42:29Z</DateUtc></FrequencyChange></FrequencyChanges></Clock>\n";EXP2.2_290421-122-1;59.951;1.0.0.368;1;Chronos;2045189154;Full;3.0.3.80;3.0.3.80;09-14-2013;14/09/2013 07:42;09:42:29;3.0.3.82;1;Chronos;Chronos;1;1;1;Training;Generalbloc;;;Chronos;pretest;;1;;;;;;;TRAININGVV;SpatialTaskTraining;1;1;1;Chronos;;;;;;;;;;;;;;;;;;;;;;;;;;;;;;6;1;1;6;11;blocVVstimTraining;LISTVVRANDOM1;VV_110521/925.png;VV_110521/875.png;0;;Chronos;-999999;0;965217;0;1;598;965815
EXP2.2_290421;122;1;Chronos;<ChronosDeviceInfo><FriendlyName>MyChronos</FriendlyName><DeviceIndex>1</DeviceIndex><SerialNumber>CHR-04301-1186</SerialNumber><EBNVersion>3.0.3.80</EBNVersion><FirmwareVersion>1.33</FirmwareVersion><APIVersion>1.33</APIVersion><USBHostControllerVersion>2.0</USBHostControllerVersion><USBConnectionRoute>USB#ROOT_HUB20#4&f63975&0#{f18a0e88-c30c-11d0-8815-00a0c906bed8} + USB#VID_8087&PID_0024#5&365d106a&0&1#{f18a0e88-c30c-11d0-8815-00a0c906bed8}(1) + VID_2266&PID_0007(2)</USBConnectionRoute></ChronosDeviceInfo>;"<?xml version=""1.0""?>\n<Clock xmlns:dt=""urn:schemas-microsoft-com:datatypes""><Description dt:dt=""string"">E-Prime Primary Realtime Clock</Description><StartTime><Timestamp dt:dt=""int"">0</Timestamp><DateUtc dt:dt=""string"">2013-09-14T07:42:29Z</DateUtc></StartTime><FrequencyChanges><FrequencyChange><Frequency dt:dt=""r8"">3312832</Frequency><Timestamp dt:dt=""r8"">594750072215</Timestamp><Current dt:dt=""r8"">0</Current><DateUtc dt:dt=""string"">2013-09-14T07:42:29Z</DateUtc></FrequencyChange></FrequencyChanges></Clock>\n";EXP2.2_290421-122-1;59.951;1.0.0.368;1;Chronos;2045189154;Full;3.0.3.80;3.0.3.80;09-14-2013;14/09/2013 07:42;09:42:29;3.0.3.82;1;Chronos;Chronos;1;1;1;Training;Generalbloc;;;Chronos;pretest;;1;;;;;;;TRAININGVV;SpatialTaskTraining;1;1;1;Chronos;;;;;;;;;;;;;;;;;;;;;;;;;;;;;;7;1;1;7;2;blocVVstimTraining;LISTVVRANDOM1;VV_110521/880.png;VV_110521/885.png;0;;Chronos;-999999;1;967853;0;1;727;968580
EXP2.2_290421;122;1;Chronos;<ChronosDeviceInfo><FriendlyName>MyChronos</FriendlyName><DeviceIndex>1</DeviceIndex><SerialNumber>CHR-04301-1186</SerialNumber><EBNVersion>3.0.3.80</EBNVersion><FirmwareVersion>1.33</FirmwareVersion><APIVersion>1.33</APIVersion><USBHostControllerVersion>2.0</USBHostControllerVersion><USBConnectionRoute>USB#ROOT_HUB20#4&f63975&0#{f18a0e88-c30c-11d0-8815-00a0c906bed8} + USB#VID_8087&PID_0024#5&365d106a&0&1#{f18a0e88-c30c-11d0-8815-00a0c906bed8}(1) + VID_2266&PID_0007(2)</USBConnectionRoute></ChronosDeviceInfo>;"<?xml version=""1.0""?>\n<Clock xmlns:dt=""urn:schemas-microsoft-com:datatypes""><Description dt:dt=""string"">E-Prime Primary Realtime Clock</Description><StartTime><Timestamp dt:dt=""int"">0</Timestamp><DateUtc dt:dt=""string"">2013-09-14T07:42:29Z</DateUtc></StartTime><FrequencyChanges><FrequencyChange><Frequency dt:dt=""r8"">3312832</Frequency><Timestamp dt:dt=""r8"">594750072215</Timestamp><Current dt:dt=""r8"">0</Current><DateUtc dt:dt=""string"">2013-09-14T07:42:29Z</DateUtc></FrequencyChange></FrequencyChanges></Clock>\n";EXP2.2_290421-122-1;59.951;1.0.0.368;1;Chronos;2045189154;Full;3.0.3.80;3.0.3.80;09-14-2013;14/09/2013 07:42;09:42:29;3.0.3.82;1;Chronos;Chronos;1;1;1;Training;Generalbloc;;;Chronos;pretest;;1;;;;;;;TRAININGVV;SpatialTaskTraining;1;1;1;Chronos;;;;;;;;;;;;;;;;;;;;;;;;;;;;;;8;1;1;8;4;blocVVstimTraining;LISTVVRANDOM1;VV_110521/890.png;VV_110521/895.png;0;;Chronos;-999999;0;970605;0;5;126;970731
EXP2.2_290421;122;1;Chronos;<ChronosDeviceInfo><FriendlyName>MyChronos</FriendlyName><DeviceIndex>1</DeviceIndex><SerialNumber>CHR-04301-1186</SerialNumber><EBNVersion>3.0.3.80</EBNVersion><FirmwareVersion>1.33</FirmwareVersion><APIVersion>1.33</APIVersion><USBHostControllerVersion>2.0</USBHostControllerVersion><USBConnectionRoute>USB#ROOT_HUB20#4&f63975&0#{f18a0e88-c30c-11d0-8815-00a0c906bed8} + USB#VID_8087&PID_0024#5&365d106a&0&1#{f18a0e88-c30c-11d0-8815-00a0c906bed8}(1) + VID_2266&PID_0007(2)</USBConnectionRoute></ChronosDeviceInfo>;"<?xml version=""1.0""?>\n<Clock xmlns:dt=""urn:schemas-microsoft-com:datatypes""><Description dt:dt=""string"">E-Prime Primary Realtime Clock</Description><StartTime><Timestamp dt:dt=""int"">0</Timestamp><DateUtc dt:dt=""string"">2013-09-14T07:42:29Z</DateUtc></StartTime><FrequencyChanges><FrequencyChange><Frequency dt:dt=""r8"">3312832</Frequency><Timestamp dt:dt=""r8"">594750072215</Timestamp><Current dt:dt=""r8"">0</Current><DateUtc dt:dt=""string"">2013-09-14T07:42:29Z</DateUtc></FrequencyChange></FrequencyChanges></Clock>\n";EXP2.2_290421-122-1;59.951;1.0.0.368;1;Chronos;2045189154;Full;3.0.3.80;3.0.3.80;09-14-2013;14/09/2013 07:42;09:42:29;3.0.3.82;1;Chronos;Chronos;1;1;1;Training;Generalbloc;;;Chronos;pretest;;1;;;;;;;TRAININGVV;SpatialTaskTraining;1;1;1;Chronos;;;;;;;;;;;;;;;;;;;;;;;;;;;;;;9;1;1;9;6;blocVVstimTraining;LISTVVRANDOM1;VV_110521/900.png;VV_110521/905.png;0;;Chronos;-999999;1;972757;0;5;279;973036
EXP2.2_290421;122;1;Chronos;<ChronosDeviceInfo><FriendlyName>MyChronos</FriendlyName><DeviceIndex>1</DeviceIndex><SerialNumber>CHR-04301-1186</SerialNumber><EBNVersion>3.0.3.80</EBNVersion><FirmwareVersion>1.33</FirmwareVersion><APIVersion>1.33</APIVersion><USBHostControllerVersion>2.0</USBHostControllerVersion><USBConnectionRoute>USB#ROOT_HUB20#4&f63975&0#{f18a0e88-c30c-11d0-8815-00a0c906bed8} + USB#VID_8087&PID_0024#5&365d106a&0&1#{f18a0e88-c30c-11d0-8815-00a0c906bed8}(1) + VID_2266&PID_0007(2)</USBConnectionRoute></ChronosDeviceInfo>;"<?xml version=""1.0""?>\n<Clock xmlns:dt=""urn:schemas-microsoft-com:datatypes""><Description dt:dt=""string"">E-Prime Primary Realtime Clock</Description><StartTime><Timestamp dt:dt=""int"">0</Timestamp><DateUtc dt:dt=""string"">2013-09-14T07:42:29Z</DateUtc></StartTime><FrequencyChanges><FrequencyChange><Frequency dt:dt=""r8"">3312832</Frequency><Timestamp dt:dt=""r8"">594750072215</Timestamp><Current dt:dt=""r8"">0</Current><DateUtc dt:dt=""string"">2013-09-14T07:42:29Z</DateUtc></FrequencyChange></FrequencyChanges></Clock>\n";EXP2.2_290421-122-1;59.951;1.0.0.368;1;Chronos;2045189154;Full;3.0.3.80;3.0.3.80;09-14-2013;14/09/2013 07:42;09:42:29;3.0.3.82;1;Chronos;Chronos;1;1;1;Training;Generalbloc;;;Chronos;pretest;;1;;;;;;;TRAININGVV;SpatialTaskTraining;1;1;1;Chronos;;;;;;;;;;;;;;;;;;;;;;;;;;;;;;10;1;1;10;8;blocVVstimTraining;LISTVVRANDOM1;VV_110521/910.png;VV_110521/915.png;0;;Chronos;-999999;1;975059;0;5;368;975427
EXP2.2_290421;122;1;Chronos;<ChronosDeviceInfo><FriendlyName>MyChronos</FriendlyName><DeviceIndex>1</DeviceIndex><SerialNumber>CHR-04301-1186</SerialNumber><EBNVersion>3.0.3.80</EBNVersion><FirmwareVersion>1.33</FirmwareVersion><APIVersion>1.33</APIVersion><USBHostControllerVersion>2.0</USBHostControllerVersion><USBConnectionRoute>USB#ROOT_HUB20#4&f63975&0#{f18a0e88-c30c-11d0-8815-00a0c906bed8} + USB#VID_8087&PID_0024#5&365d106a&0&1#{f18a0e88-c30c-11d0-8815-00a0c906bed8}(1) + VID_2266&PID_0007(2)</USBConnectionRoute></ChronosDeviceInfo>;"<?xml version=""1.0""?>\n<Clock xmlns:dt=""urn:schemas-microsoft-com:datatypes""><Description dt:dt=""string"">E-Prime Primary Realtime Clock</Description><StartTime><Timestamp dt:dt=""int"">0</Timestamp><DateUtc dt:dt=""string"">2013-09-14T07:42:29Z</DateUtc></StartTime><FrequencyChanges><FrequencyChange><Frequency dt:dt=""r8"">3312832</Frequency><Timestamp dt:dt=""r8"">594750072215</Timestamp><Current dt:dt=""r8"">0</Current><DateUtc dt:dt=""string"">2013-09-14T07:42:29Z</DateUtc></FrequencyChange></FrequencyChanges></Clock>\n";EXP2.2_290421-122-1;59.951;1.0.0.368;1;Chronos;2045189154;Full;3.0.3.80;3.0.3.80;09-14-2013;14/09/2013 07:42;09:42:29;3.0.3.82;1;Chronos;Chronos;1;1;1;Training;Generalbloc;;;Chronos;pretest;;1;;;;;;;TRAININGVV;SpatialTaskTraining;1;1;1;Chronos;;;;;;;;;;;;;;;;;;;;;;;;;;;;;;11;1;1;11;10;blocVVstimTraining;LISTVVRANDOM1;VV_110521/920.png;VV_110521/925.png;0;;Chronos;-999999;1;977461;0;5;9939;987400
EXP2.2_290421;122;1;Chronos;<ChronosDeviceInfo><FriendlyName>MyChronos</FriendlyName><DeviceIndex>1</DeviceIndex><SerialNumber>CHR-04301-1186</SerialNumber><EBNVersion>3.0.3.80</EBNVersion><FirmwareVersion>1.33</FirmwareVersion><APIVersion>1.33</APIVersion><USBHostControllerVersion>2.0</USBHostControllerVersion><USBConnectionRoute>USB#ROOT_HUB20#4&f63975&0#{f18a0e88-c30c-11d0-8815-00a0c906bed8} + USB#VID_8087&PID_0024#5&365d106a&0&1#{f18a0e88-c30c-11d0-8815-00a0c906bed8}(1) + VID_2266&PID_0007(2)</USBConnectionRoute></ChronosDeviceInfo>;"<?xml version=""1.0""?>\n<Clock xmlns:dt=""urn:schemas-microsoft-com:datatypes""><Description dt:dt=""string"">E-Prime Primary Realtime Clock</Description><StartTime><Timestamp dt:dt=""int"">0</Timestamp><DateUtc dt:dt=""string"">2013-09-14T07:42:29Z</DateUtc></StartTime><FrequencyChanges><FrequencyChange><Frequency dt:dt=""r8"">3312832</Frequency><Timestamp dt:dt=""r8"">594750072215</Timestamp><Current dt:dt=""r8"">0</Current><DateUtc dt:dt=""string"">2013-09-14T07:42:29Z</DateUtc></FrequencyChange></FrequencyChanges></Clock>\n";EXP2.2_290421-122-1;59.951;1.0.0.368;1;Chronos;2045189154;Full;3.0.3.80;3.0.3.80;09-14-2013;14/09/2013 07:42;09:42:29;3.0.3.82;1;Chronos;Chronos;1;1;1;Training;Generalbloc;;;Chronos;pretest;;1;;;;;;;TRAININGVV;SpatialTaskTraining;1;1;1;Chronos;;;;;;;;;;;;;;;;;;;;;;;;;;;;;;12;1;1;12;1;blocVVstimTraining;LISTVVRANDOM1;VV_110521/875.png;VV_110521/880.png;0;;Chronos;-999999;0;989437;0;1;1571;991008
EXP2.2_290421;122;1;Chronos;<ChronosDeviceInfo><FriendlyName>MyChronos</FriendlyName><DeviceIndex>1</DeviceIndex><SerialNumber>CHR-04301-1186</SerialNumber><EBNVersion>3.0.3.80</EBNVersion><FirmwareVersion>1.33</FirmwareVersion><APIVersion>1.33</APIVersion><USBHostControllerVersion>2.0</USBHostControllerVersion><USBConnectionRoute>USB#ROOT_HUB20#4&f63975&0#{f18a0e88-c30c-11d0-8815-00a0c906bed8} + USB#VID_8087&PID_0024#5&365d106a&0&1#{f18a0e88-c30c-11d0-8815-00a0c906bed8}(1) + VID_2266&PID_0007(2)</USBConnectionRoute></ChronosDeviceInfo>;"<?xml version=""1.0""?>\n<Clock xmlns:dt=""urn:schemas-microsoft-com:datatypes""><Description dt:dt=""string"">E-Prime Primary Realtime Clock</Description><StartTime><Timestamp dt:dt=""int"">0</Timestamp><DateUtc dt:dt=""string"">2013-09-14T07:42:29Z</DateUtc></StartTime><FrequencyChanges><FrequencyChange><Frequency dt:dt=""r8"">3312832</Frequency><Timestamp dt:dt=""r8"">594750072215</Timestamp><Current dt:dt=""r8"">0</Current><DateUtc dt:dt=""string"">2013-09-14T07:42:29Z</DateUtc></FrequencyChange></FrequencyChanges></Clock>\n";EXP2.2_290421-122-1;59.951;1.0.0.368;1;Chronos;2045189154;Full;3.0.3.80;3.0.3.80;09-14-2013;14/09/2013 07:42;09:42:29;3.0.3.82;2;Chronos;;2;1;2;TESTVV;Generalbloc;;;;pretest;Chronos;1;1;VV_110521/880.png;2;1;1;-20;blocVVstim;listVVTrial;;;;Chronos;0;;0;1;1050488;200;;0;0;0;1;Chronos;0;0;1050688;300;5;726;1051414;0;1;Chronos;0;0;1050988;0;5;426;1051414;;;;;;;;;;;;;;;;;;;
EXP2.2_290421;122;1;Chronos;<ChronosDeviceInfo><FriendlyName>MyChronos</FriendlyName><DeviceIndex>1</DeviceIndex><SerialNumber>CHR-04301-1186</SerialNumber><EBNVersion>3.0.3.80</EBNVersion><FirmwareVersion>1.33</FirmwareVersion><APIVersion>1.33</APIVersion><USBHostControllerVersion>2.0</USBHostControllerVersion><USBConnectionRoute>USB#ROOT_HUB20#4&f63975&0#{f18a0e88-c30c-11d0-8815-00a0c906bed8} + USB#VID_8087&PID_0024#5&365d106a&0&1#{f18a0e88-c30c-11d0-8815-00a0c906bed8}(1) + VID_2266&PID_0007(2)</USBConnectionRoute></ChronosDeviceInfo>;"<?xml version=""1.0""?>\n<Clock xmlns:dt=""urn:schemas-microsoft-com:datatypes""><Description dt:dt=""string"">E-Prime Primary Realtime Clock</Description><StartTime><Timestamp dt:dt=""int"">0</Timestamp><DateUtc dt:dt=""string"">2013-09-14T07:42:29Z</DateUtc></StartTime><FrequencyChanges><FrequencyChange><Frequency dt:dt=""r8"">3312832</Frequency><Timestamp dt:dt=""r8"">594750072215</Timestamp><Current dt:dt=""r8"">0</Current><DateUtc dt:dt=""string"">2013-09-14T07:42:29Z</DateUtc></FrequencyChange></FrequencyChanges></Clock>\n";EXP2.2_290421-122-1;59.951;1.0.0.368;1;Chronos;2045189154;Full;3.0.3.80;3.0.3.80;09-14-2013;14/09/2013 07:42;09:42:29;3.0.3.82;2;Chronos;;2;1;2;TESTVV;Generalbloc;;;;pretest;Chronos;2;5;VV_110521/915.png;9;1;2;15;blocVVstim;listVVTrial;;;;Chronos;0;;0;1;1052940;200;;0;0;1;5;Chronos;0;0;1053140;300;5;448;1053588;1;5;Chronos;0;0;1053440;0;5;148;1053588;;;;;;;;;;;;;;;;;;;
EXP2.2_290421;122;1;Chronos;<ChronosDeviceInfo><FriendlyName>MyChronos</FriendlyName><DeviceIndex>1</DeviceIndex><SerialNumber>CHR-04301-1186</SerialNumber><EBNVersion>3.0.3.80</EBNVersion><FirmwareVersion>1.33</FirmwareVersion><APIVersion>1.33</APIVersion><USBHostControllerVersion>2.0</USBHostControllerVersion><USBConnectionRoute>USB#ROOT_HUB20#4&f63975&0#{f18a0e88-c30c-11d0-8815-00a0c906bed8} + USB#VID_8087&PID_0024#5&365d106a&0&1#{f18a0e88-c30c-11d0-8815-00a0c906bed8}(1) + VID_2266&PID_0007(2)</USBConnectionRoute></ChronosDeviceInfo>;"<?xml version=""1.0""?>\n<Clock xmlns:dt=""urn:schemas-microsoft-com:datatypes""><Description dt:dt=""string"">E-Prime Primary Realtime Clock</Description><StartTime><Timestamp dt:dt=""int"">0</Timestamp><DateUtc dt:dt=""string"">2013-09-14T07:42:29Z</DateUtc></StartTime><FrequencyChanges><FrequencyChange><Frequency dt:dt=""r8"">3312832</Frequency><Timestamp dt:dt=""r8"">594750072215</Timestamp><Current dt:dt=""r8"">0</Current><DateUtc dt:dt=""string"">2013-09-14T07:42:29Z</DateUtc></FrequencyChange></FrequencyChanges></Clock>\n";EXP2.2_290421-122-1;59.951;1.0.0.368;1;Chronos;2045189154;Full;3.0.3.80;3.0.3.80;09-14-2013;14/09/2013 07:42;09:42:29;3.0.3.82;2;Chronos;;2;1;2;TESTVV;Generalbloc;;;;pretest;Chronos;3;5;VV_110521/905.png;7;1;3;5;blocVVstim;listVVTrial;;;;Chronos;0;;0;1;1055125;200;;0;0;1;5;Chronos;0;0;1055325;300;5;523;1055848;1;5;Chronos;0;0;1055625;0;5;223;1055848;;;;;;;;;;;;;;;;;;;
EXP2.2_290421;122;1;Chronos;<ChronosDeviceInfo><FriendlyName>MyChronos</FriendlyName><DeviceIndex>1</DeviceIndex><SerialNumber>CHR-04301-1186</SerialNumber><EBNVersion>3.0.3.80</EBNVersion><FirmwareVersion>1.33</FirmwareVersion><APIVersion>1.33</APIVersion><USBHostControllerVersion>2.0</USBHostControllerVersion><USBConnectionRoute>USB#ROOT_HUB20#4&f63975&0#{f18a0e88-c30c-11d0-8815-00a0c906bed8} + USB#VID_8087&PID_0024#5&365d106a&0&1#{f18a0e88-c30c-11d0-8815-00a0c906bed8}(1) + VID_2266&PID_0007(2)</USBConnectionRoute></ChronosDeviceInfo>;"<?xml version=""1.0""?>\n<Clock xmlns:dt=""urn:schemas-microsoft-com:datatypes""><Description dt:dt=""string"">E-Prime Primary Realtime Clock</Description><StartTime><Timestamp dt:dt=""int"">0</Timestamp><DateUtc dt:dt=""string"">2013-09-14T07:42:29Z</DateUtc></StartTime><FrequencyChanges><FrequencyChange><Frequency dt:dt=""r8"">3312832</Frequency><Timestamp dt:dt=""r8"">594750072215</Timestamp><Current dt:dt=""r8"">0</Current><DateUtc dt:dt=""string"">2013-09-14T07:42:29Z</DateUtc></FrequencyChange></FrequencyChanges></Clock>\n";EXP2.2_290421-122-1;59.951;1.0.0.368;1;Chronos;2045189154;Full;3.0.3.80;3.0.3.80;09-14-2013;14/09/2013 07:42;09:42:29;3.0.3.82;2;Chronos;;2;1;2;TESTVV;Generalbloc;;;;pretest;Chronos;4;5;VV_110521/920.png;10;1;4;20;blocVVstim;listVVTrial;;;;Chronos;0;;0;1;1057377;200;;0;0;1;5;Chronos;0;0;1057577;300;5;422;1057999;1;5;Chronos;0;0;1057877;0;5;122;1057999;;;;;;;;;;;;;;;;;;;
EXP2.2_290421;122;1;Chronos;<ChronosDeviceInfo><FriendlyName>MyChronos</FriendlyName><DeviceIndex>1</DeviceIndex><SerialNumber>CHR-04301-1186</SerialNumber><EBNVersion>3.0.3.80</EBNVersion><FirmwareVersion>1.33</FirmwareVersion><APIVersion>1.33</APIVersion><USBHostControllerVersion>2.0</USBHostControllerVersion><USBConnectionRoute>USB#ROOT_HUB20#4&f63975&0#{f18a0e88-c30c-11d0-8815-00a0c906bed8} + USB#VID_8087&PID_0024#5&365d106a&0&1#{f18a0e88-c30c-11d0-8815-00a0c906bed8}(1) + VID_2266&PID_0007(2)</USBConnectionRoute></ChronosDeviceInfo>;"<?xml version=""1.0""?>\n<Clock xmlns:dt=""urn:schemas-microsoft-com:datatypes""><Description dt:dt=""string"">E-Prime Primary Realtime Clock</Description><StartTime><Timestamp dt:dt=""int"">0</Timestamp><DateUtc dt:dt=""string"">2013-09-14T07:42:29Z</DateUtc></StartTime><FrequencyChanges><FrequencyChange><Frequency dt:dt=""r8"">3312832</Frequency><Timestamp dt:dt=""r8"">594750072215</Timestamp><Current dt:dt=""r8"">0</Current><DateUtc dt:dt=""string"">2013-09-14T07:42:29Z</DateUtc></FrequencyChange></FrequencyChanges></Clock>\n";EXP2.2_290421-122-1;59.951;1.0.0.368;1;Chronos;2045189154;Full;3.0.3.80;3.0.3.80;09-14-2013;14/09/2013 07:42;09:42:29;3.0.3.82;2;Chronos;;2;1;2;TESTVV;Generalbloc;;;;pretest;Chronos;5;5;VV_110521/915.png;9;1;5;15;blocVVstim;listVVTrial;;;;Chronos;0;;0;2;1059529;200;;0;0;1;5;Chronos;0;0;1059729;300;5;439;1060168;1;5;Chronos;0;0;1060029;0;5;139;1060168;;;;;;;;;;;;;;;;;;;
EXP2.2_290421;122;1;Chronos;<ChronosDeviceInfo><FriendlyName>MyChronos</FriendlyName><DeviceIndex>1</DeviceIndex><SerialNumber>CHR-04301-1186</SerialNumber><EBNVersion>3.0.3.80</EBNVersion><FirmwareVersion>1.33</FirmwareVersion><APIVersion>1.33</APIVersion><USBHostControllerVersion>2.0</USBHostControllerVersion><USBConnectionRoute>USB#ROOT_HUB20#4&f63975&0#{f18a0e88-c30c-11d0-8815-00a0c906bed8} + USB#VID_8087&PID_0024#5&365d106a&0&1#{f18a0e88-c30c-11d0-8815-00a0c906bed8}(1) + VID_2266&PID_0007(2)</USBConnectionRoute></ChronosDeviceInfo>;"<?xml version=""1.0""?>\n<Clock xmlns:dt=""urn:schemas-microsoft-com:datatypes""><Description dt:dt=""string"">E-Prime Primary Realtime Clock</Description><StartTime><Timestamp dt:dt=""int"">0</Timestamp><DateUtc dt:dt=""string"">2013-09-14T07:42:29Z</DateUtc></StartTime><FrequencyChanges><FrequencyChange><Frequency dt:dt=""r8"">3312832</Frequency><Timestamp dt:dt=""r8"">594750072215</Timestamp><Current dt:dt=""r8"">0</Current><DateUtc dt:dt=""string"">2013-09-14T07:42:29Z</DateUtc></FrequencyChange></FrequencyChanges></Clock>\n";EXP2.2_290421-122-1;59.951;1.0.0.368;1;Chronos;2045189154;Full;3.0.3.80;3.0.3.80;09-14-2013;14/09/2013 07:42;09:42:29;3.0.3.82;2;Chronos;;2;1;2;TESTVV;Generalbloc;;;;pretest;Chronos;6;5;VV_110521/925.png;11;1;6;25;blocVVstim;listVVTrial;;;;Chronos;0;;0;1;1061697;200;;0;0;1;5;Chronos;0;0;1061897;301;5;512;1062409;1;5;Chronos;0;1;1062198;0;5;211;1062409;;;;;;;;;;;;;;;;;;;
EXP2.2_290421;122;1;Chronos;<ChronosDeviceInfo><FriendlyName>MyChronos</FriendlyName><DeviceIndex>1</DeviceIndex><SerialNumber>CHR-04301-1186</SerialNumber><EBNVersion>3.0.3.80</EBNVersion><FirmwareVersion>1.33</FirmwareVersion><APIVersion>1.33</APIVersion><USBHostControllerVersion>2.0</USBHostControllerVersion><USBConnectionRoute>USB#ROOT_HUB20#4&f63975&0#{f18a0e88-c30c-11d0-8815-00a0c906bed8} + USB#VID_8087&PID_0024#5&365d106a&0&1#{f18a0e88-c30c-11d0-8815-00a0c906bed8}(1) + VID_2266&PID_0007(2)</USBConnectionRoute></ChronosDeviceInfo>;"<?xml version=""1.0""?>\n<Clock xmlns:dt=""urn:schemas-microsoft-com:datatypes""><Description dt:dt=""string"">E-Prime Primary Realtime Clock</Description><StartTime><Timestamp dt:dt=""int"">0</Timestamp><DateUtc dt:dt=""string"">2013-09-14T07:42:29Z</DateUtc></StartTime><FrequencyChanges><FrequencyChange><Frequency dt:dt=""r8"">3312832</Frequency><Timestamp dt:dt=""r8"">594750072215</Timestamp><Current dt:dt=""r8"">0</Current><DateUtc dt:dt=""string"">2013-09-14T07:42:29Z</DateUtc></FrequencyChange></FrequencyChanges></Clock>\n";EXP2.2_290421-122-1;59.951;1.0.0.368;1;Chronos;2045189154;Full;3.0.3.80;3.0.3.80;09-14-2013;14/09/2013 07:42;09:42:29;3.0.3.82;2;Chronos;;2;1;2;TESTVV;Generalbloc;;;;pretest;Chronos;7;5;VV_110521/925.png;11;1;7;25;blocVVstim;listVVTrial;;;;Chronos;0;;0;1;1063932;200;;0;0;1;5;Chronos;0;0;1064132;301;5;366;1064498;1;5;Chronos;0;1;1064433;0;5;65;1064498;;;;;;;;;;;;;;;;;;;
EXP2.2_290421;122;1;Chronos;<ChronosDeviceInfo><FriendlyName>MyChronos</FriendlyName><DeviceIndex>1</DeviceIndex><SerialNumber>CHR-04301-1186</SerialNumber><EBNVersion>3.0.3.80</EBNVersion><FirmwareVersion>1.33</FirmwareVersion><APIVersion>1.33</APIVersion><USBHostControllerVersion>2.0</USBHostControllerVersion><USBConnectionRoute>USB#ROOT_HUB20#4&f63975&0#{f18a0e88-c30c-11d0-8815-00a0c906bed8} + USB#VID_8087&PID_0024#5&365d106a&0&1#{f18a0e88-c30c-11d0-8815-00a0c906bed8}(1) + VID_2266&PID_0007(2)</USBConnectionRoute></ChronosDeviceInfo>;"<?xml version=""1.0""?>\n<Clock xmlns:dt=""urn:schemas-microsoft-com:datatypes""><Description dt:dt=""string"">E-Prime Primary Realtime Clock</Description><StartTime><Timestamp dt:dt=""int"">0</Timestamp><DateUtc dt:dt=""string"">2013-09-14T07:42:29Z</DateUtc></StartTime><FrequencyChanges><FrequencyChange><Frequency dt:dt=""r8"">3312832</Frequency><Timestamp dt:dt=""r8"">594750072215</Timestamp><Current dt:dt=""r8"">0</Current><DateUtc dt:dt=""string"">2013-09-14T07:42:29Z</DateUtc></FrequencyChange></FrequencyChanges></Clock>\n";EXP2.2_290421-122-1;59.951;1.0.0.368;1;Chronos;2045189154;Full;3.0.3.80;3.0.3.80;09-14-2013;14/09/2013 07:42;09:42:29;3.0.3.82;2;Chronos;;2;1;2;TESTVV;Generalbloc;;;;pretest;Chronos;8;1;VV_110521/885.png;3;1;8;-15;blocVVstim;listVVTrial;;;;Chronos;0;;0;1;1066034;200;;0;0;0;1;Chronos;0;0;1066234;300;5;977;1067211;0;1;Chronos;0;0;1066534;0;5;677;1067211;;;;;;;;;;;;;;;;;;;
EXP2.2_290421;122;1;Chronos;<ChronosDeviceInfo><FriendlyName>MyChronos</FriendlyName><DeviceIndex>1</DeviceIndex><SerialNumber>CHR-04301-1186</SerialNumber><EBNVersion>3.0.3.80</EBNVersion><FirmwareVersion>1.33</FirmwareVersion><APIVersion>1.33</APIVersion><USBHostControllerVersion>2.0</USBHostControllerVersion><USBConnectionRoute>USB#ROOT_HUB20#4&f63975&0#{f18a0e88-c30c-11d0-8815-00a0c906bed8} + USB#VID_8087&PID_0024#5&365d106a&0&1#{f18a0e88-c30c-11d0-8815-00a0c906bed8}(1) + VID_2266&PID_0007(2)</USBConnectionRoute></ChronosDeviceInfo>;"<?xml version=""1.0""?>\n<Clock xmlns:dt=""urn:schemas-microsoft-com:datatypes""><Description dt:dt=""string"">E-Prime Primary Realtime Clock</Description><StartTime><Timestamp dt:dt=""int"">0</Timestamp><DateUtc dt:dt=""string"">2013-09-14T07:42:29Z</DateUtc></StartTime><FrequencyChanges><FrequencyChange><Frequency dt:dt=""r8"">3312832</Frequency><Timestamp dt:dt=""r8"">594750072215</Timestamp><Current dt:dt=""r8"">0</Current><DateUtc dt:dt=""string"">2013-09-14T07:42:29Z</DateUtc></FrequencyChange></FrequencyChanges></Clock>\n";EXP2.2_290421-122-1;59.951;1.0.0.368;1;Chronos;2045189154;Full;3.0.3.80;3.0.3.80;09-14-2013;14/09/2013 07:42;09:42:29;3.0.3.82;2;Chronos;;2;1;2;TESTVV;Generalbloc;;;;pretest;Chronos;9;5;VV_110521/920.png;10;1;9;20;blocVVstim;listVVTrial;;;;Chronos;0;;0;1;1068736;200;;0;0;1;5;Chronos;0;0;1068936;301;5;330;1069266;1;5;Chronos;0;1;1069237;0;5;29;1069266;;;;;;;;;;;;;;;;;;;
EXP2.2_290421;122;1;Chronos;<ChronosDeviceInfo><FriendlyName>MyChronos</FriendlyName><DeviceIndex>1</DeviceIndex><SerialNumber>CHR-04301-1186</SerialNumber><EBNVersion>3.0.3.80</EBNVersion><FirmwareVersion>1.33</FirmwareVersion><APIVersion>1.33</APIVersion><USBHostControllerVersion>2.0</USBHostControllerVersion><USBConnectionRoute>USB#ROOT_HUB20#4&f63975&0#{f18a0e88-c30c-11d0-8815-00a0c906bed8} + USB#VID_8087&PID_0024#5&365d106a&0&1#{f18a0e88-c30c-11d0-8815-00a0c906bed8}(1) + VID_2266&PID_0007(2)</USBConnectionRoute></ChronosDeviceInfo>;"<?xml version=""1.0""?>\n<Clock xmlns:dt=""urn:schemas-microsoft-com:datatypes""><Description dt:dt=""string"">E-Prime Primary Realtime Clock</Description><StartTime><Timestamp dt:dt=""int"">0</Timestamp><DateUtc dt:dt=""string"">2013-09-14T07:42:29Z</DateUtc></StartTime><FrequencyChanges><FrequencyChange><Frequency dt:dt=""r8"">3312832</Frequency><Timestamp dt:dt=""r8"">594750072215</Timestamp><Current dt:dt=""r8"">0</Current><DateUtc dt:dt=""string"">2013-09-14T07:42:29Z</DateUtc></FrequencyChange></FrequencyChanges></Clock>\n";EXP2.2_290421-122-1;59.951;1.0.0.368;1;Chronos;2045189154;Full;3.0.3.80;3.0.3.80;09-14-2013;14/09/2013 07:42;09:42:29;3.0.3.82;2;Chronos;;2;1;2;TESTVV;Generalbloc;;;;pretest;Chronos;10;1;VV_110521/890.png;4;1;10;-10;blocVVstim;listVVTrial;;;;Chronos;0;;0;1;1070788;200;;0;0;1;1;Chronos;0;0;1070988;300;1;881;1071869;1;1;Chronos;0;0;1071288;0;1;581;1071869;;;;;;;;;;;;;;;;;;;
EXP2.2_290421;122;1;Chronos;<ChronosDeviceInfo><FriendlyName>MyChronos</FriendlyName><DeviceIndex>1</DeviceIndex><SerialNumber>CHR-04301-1186</SerialNumber><EBNVersion>3.0.3.80</EBNVersion><FirmwareVersion>1.33</FirmwareVersion><APIVersion>1.33</APIVersion><USBHostControllerVersion>2.0</USBHostControllerVersion><USBConnectionRoute>USB#ROOT_HUB20#4&f63975&0#{f18a0e88-c30c-11d0-8815-00a0c906bed8} + USB#VID_8087&PID_0024#5&365d106a&0&1#{f18a0e88-c30c-11d0-8815-00a0c906bed8}(1) + VID_2266&PID_0007(2)</USBConnectionRoute></ChronosDeviceInfo>;"<?xml version=""1.0""?>\n<Clock xmlns:dt=""urn:schemas-microsoft-com:datatypes""><Description dt:dt=""string"">E-Prime Primary Realtime Clock</Description><StartTime><Timestamp dt:dt=""int"">0</Timestamp><DateUtc dt:dt=""string"">2013-09-14T07:42:29Z</DateUtc></StartTime><FrequencyChanges><FrequencyChange><Frequency dt:dt=""r8"">3312832</Frequency><Timestamp dt:dt=""r8"">594750072215</Timestamp><Current dt:dt=""r8"">0</Current><DateUtc dt:dt=""string"">2013-09-14T07:42:29Z</DateUtc></FrequencyChange></FrequencyChanges></Clock>\n";EXP2.2_290421-122-1;59.951;1.0.0.368;1;Chronos;2045189154;Full;3.0.3.80;3.0.3.80;09-14-2013;14/09/2013 07:42;09:42:29;3.0.3.82;2;Chronos;;2;1;2;TESTVV;Generalbloc;;;;pretest;Chronos;11;15;VV_110521/900.png;6;1;11;0;blocVVstim;listVVTrial;;;;Chronos;0;;0;1;1073407;200;;0;0;0;15;Chronos;0;0;1073607;300;5;431;1074038;0;15;Chronos;0;0;1073907;0;5;131;1074038;;;;;;;;;;;;;;;;;;;
EXP2.2_290421;122;1;Chronos;<ChronosDeviceInfo><FriendlyName>MyChronos</FriendlyName><DeviceIndex>1</DeviceIndex><SerialNumber>CHR-04301-1186</SerialNumber><EBNVersion>3.0.3.80</EBNVersion><FirmwareVersion>1.33</FirmwareVersion><APIVersion>1.33</APIVersion><USBHostControllerVersion>2.0</USBHostControllerVersion><USBConnectionRoute>USB#ROOT_HUB20#4&f63975&0#{f18a0e88-c30c-11d0-8815-00a0c906bed8} + USB#VID_8087&PID_0024#5&365d106a&0&1#{f18a0e88-c30c-11d0-8815-00a0c906bed8}(1) + VID_2266&PID_0007(2)</USBConnectionRoute></ChronosDeviceInfo>;"<?xml version=""1.0""?>\n<Clock xmlns:dt=""urn:schemas-microsoft-com:datatypes""><Description dt:dt=""string"">E-Prime Primary Realtime Clock</Description><StartTime><Timestamp dt:dt=""int"">0</Timestamp><DateUtc dt:dt=""string"">2013-09-14T07:42:29Z</DateUtc></StartTime><FrequencyChanges><FrequencyChange><Frequency dt:dt=""r8"">3312832</Frequency><Timestamp dt:dt=""r8"">594750072215</Timestamp><Current dt:dt=""r8"">0</Current><DateUtc dt:dt=""string"">2013-09-14T07:42:29Z</DateUtc></FrequencyChange></FrequencyChanges></Clock>\n";EXP2.2_290421-122-1;59.951;1.0.0.368;1;Chronos;2045189154;Full;3.0.3.80;3.0.3.80;09-14-2013;14/09/2013 07:42;09:42:29;3.0.3.82;2;Chronos;;2;1;2;TESTVV;Generalbloc;;;;pretest;Chronos;12;5;VV_110521/920.png;10;1;12;20;blocVVstim;listVVTrial;;;;Chronos;0;;0;1;1075575;200;;0;0;1;5;Chronos;0;0;1075775;301;5;316;1076091;1;5;Chronos;0;1;1076076;0;5;15;1076091;;;;;;;;;;;;;;;;;;;
EXP2.2_290421;122;1;Chronos;<ChronosDeviceInfo><FriendlyName>MyChronos</FriendlyName><DeviceIndex>1</DeviceIndex><SerialNumber>CHR-04301-1186</SerialNumber><EBNVersion>3.0.3.80</EBNVersion><FirmwareVersion>1.33</FirmwareVersion><APIVersion>1.33</APIVersion><USBHostControllerVersion>2.0</USBHostControllerVersion><USBConnectionRoute>USB#ROOT_HUB20#4&f63975&0#{f18a0e88-c30c-11d0-8815-00a0c906bed8} + USB#VID_8087&PID_0024#5&365d106a&0&1#{f18a0e88-c30c-11d0-8815-00a0c906bed8}(1) + VID_2266&PID_0007(2)</USBConnectionRoute></ChronosDeviceInfo>;"<?xml version=""1.0""?>\n<Clock xmlns:dt=""urn:schemas-microsoft-com:datatypes""><Description dt:dt=""string"">E-Prime Primary Realtime Clock</Description><StartTime><Timestamp dt:dt=""int"">0</Timestamp><DateUtc dt:dt=""string"">2013-09-14T07:42:29Z</DateUtc></StartTime><FrequencyChanges><FrequencyChange><Frequency dt:dt=""r8"">3312832</Frequency><Timestamp dt:dt=""r8"">594750072215</Timestamp><Current dt:dt=""r8"">0</Current><DateUtc dt:dt=""string"">2013-09-14T07:42:29Z</DateUtc></FrequencyChange></FrequencyChanges></Clock>\n";EXP2.2_290421-122-1;59.951;1.0.0.368;1;Chronos;2045189154;Full;3.0.3.80;3.0.3.80;09-14-2013;14/09/2013 07:42;09:42:29;3.0.3.82;2;Chronos;;2;1;2;TESTVV;Generalbloc;;;;pretest;Chronos;13;5;VV_110521/915.png;9;1;13;15;blocVVstim;listVVTrial;;;;Chronos;0;;0;1;1077627;200;;0;0;1;5;Chronos;0;0;1077827;0;5;299;1078126;0;;;-999999;0;1078127;0;;0;0;;;;;;;;;;;;;;;;;;;
EXP2.2_290421;122;1;Chronos;<ChronosDeviceInfo><FriendlyName>MyChronos</FriendlyName><DeviceIndex>1</DeviceIndex><SerialNumber>CHR-04301-1186</SerialNumber><EBNVersion>3.0.3.80</EBNVersion><FirmwareVersion>1.33</FirmwareVersion><APIVersion>1.33</APIVersion><USBHostControllerVersion>2.0</USBHostControllerVersion><USBConnectionRoute>USB#ROOT_HUB20#4&f63975&0#{f18a0e88-c30c-11d0-8815-00a0c906bed8} + USB#VID_8087&PID_0024#5&365d106a&0&1#{f18a0e88-c30c-11d0-8815-00a0c906bed8}(1) + VID_2266&PID_0007(2)</USBConnectionRoute></ChronosDeviceInfo>;"<?xml version=""1.0""?>\n<Clock xmlns:dt=""urn:schemas-microsoft-com:datatypes""><Description dt:dt=""string"">E-Prime Primary Realtime Clock</Description><StartTime><Timestamp dt:dt=""int"">0</Timestamp><DateUtc dt:dt=""string"">2013-09-14T07:42:29Z</DateUtc></StartTime><FrequencyChanges><FrequencyChange><Frequency dt:dt=""r8"">3312832</Frequency><Timestamp dt:dt=""r8"">594750072215</Timestamp><Current dt:dt=""r8"">0</Current><DateUtc dt:dt=""string"">2013-09-14T07:42:29Z</DateUtc></FrequencyChange></FrequencyChanges></Clock>\n";EXP2.2_290421-122-1;59.951;1.0.0.368;1;Chronos;2045189154;Full;3.0.3.80;3.0.3.80;09-14-2013;14/09/2013 07:42;09:42:29;3.0.3.82;2;Chronos;;2;1;2;TESTVV;Generalbloc;;;;pretest;Chronos;14;5;VV_110521/925.png;11;1;14;25;blocVVstim;listVVTrial;;;;Chronos;0;;0;1;1079662;200;;0;0;1;5;Chronos;0;0;1079862;300;5;542;1080404;1;5;Chronos;0;0;1080162;0;5;242;1080404;;;;;;;;;;;;;;;;;;;
EXP2.2_290421;122;1;Chronos;<ChronosDeviceInfo><FriendlyName>MyChronos</FriendlyName><DeviceIndex>1</DeviceIndex><SerialNumber>CHR-04301-1186</SerialNumber><EBNVersion>3.0.3.80</EBNVersion><FirmwareVersion>1.33</FirmwareVersion><APIVersion>1.33</APIVersion><USBHostControllerVersion>2.0</USBHostControllerVersion><USBConnectionRoute>USB#ROOT_HUB20#4&f63975&0#{f18a0e88-c30c-11d0-8815-00a0c906bed8} + USB#VID_8087&PID_0024#5&365d106a&0&1#{f18a0e88-c30c-11d0-8815-00a0c906bed8}(1) + VID_2266&PID_0007(2)</USBConnectionRoute></ChronosDeviceInfo>;"<?xml version=""1.0""?>\n<Clock xmlns:dt=""urn:schemas-microsoft-com:datatypes""><Description dt:dt=""string"">E-Prime Primary Realtime Clock</Description><StartTime><Timestamp dt:dt=""int"">0</Timestamp><DateUtc dt:dt=""string"">2013-09-14T07:42:29Z</DateUtc></StartTime><FrequencyChanges><FrequencyChange><Frequency dt:dt=""r8"">3312832</Frequency><Timestamp dt:dt=""r8"">594750072215</Timestamp><Current dt:dt=""r8"">0</Current><DateUtc dt:dt=""string"">2013-09-14T07:42:29Z</DateUtc></FrequencyChange></FrequencyChanges></Clock>\n";EXP2.2_290421-122-1;59.951;1.0.0.368;1;Chronos;2045189154;Full;3.0.3.80;3.0.3.80;09-14-2013;14/09/2013 07:42;09:42:29;3.0.3.82;2;Chronos;;2;1;2;TESTVV;Generalbloc;;;;pretest;Chronos;15;5;VV_110521/910.png;8;1;15;10;blocVVstim;listVVTrial;;;;Chronos;0;;1;1;1081930;201;;0;0;1;5;Chronos;0;1;1082131;300;5;372;1082503;1;5;Chronos;0;0;1082431;0;5;72;1082503;;;;;;;;;;;;;;;;;;;
EXP2.2_290421;122;1;Chronos;<ChronosDeviceInfo><FriendlyName>MyChronos</FriendlyName><DeviceIndex>1</DeviceIndex><SerialNumber>CHR-04301-1186</SerialNumber><EBNVersion>3.0.3.80</EBNVersion><FirmwareVersion>1.33</FirmwareVersion><APIVersion>1.33</APIVersion><USBHostControllerVersion>2.0</USBHostControllerVersion><USBConnectionRoute>USB#ROOT_HUB20#4&f63975&0#{f18a0e88-c30c-11d0-8815-00a0c906bed8} + USB#VID_8087&PID_0024#5&365d106a&0&1#{f18a0e88-c30c-11d0-8815-00a0c906bed8}(1) + VID_2266&PID_0007(2)</USBConnectionRoute></ChronosDeviceInfo>;"<?xml version=""1.0""?>\n<Clock xmlns:dt=""urn:schemas-microsoft-com:datatypes""><Description dt:dt=""string"">E-Prime Primary Realtime Clock</Description><StartTime><Timestamp dt:dt=""int"">0</Timestamp><DateUtc dt:dt=""string"">2013-09-14T07:42:29Z</DateUtc></StartTime><FrequencyChanges><FrequencyChange><Frequency dt:dt=""r8"">3312832</Frequency><Timestamp dt:dt=""r8"">594750072215</Timestamp><Current dt:dt=""r8"">0</Current><DateUtc dt:dt=""string"">2013-09-14T07:42:29Z</DateUtc></FrequencyChange></FrequencyChanges></Clock>\n";EXP2.2_290421-122-1;59.951;1.0.0.368;1;Chronos;2045189154;Full;3.0.3.80;3.0.3.80;09-14-2013;14/09/2013 07:42;09:42:29;3.0.3.82;2;Chronos;;2;1;2;TESTVV;Generalbloc;;;;pretest;Chronos;16;1;VV_110521/875.png;1;1;16;-25;blocVVstim;listVVTrial;;;;Chronos;0;;0;1;1084032;200;;0;0;1;1;Chronos;0;0;1084232;301;1;490;1084722;1;1;Chronos;0;1;1084533;0;1;189;1084722;;;;;;;;;;;;;;;;;;;
EXP2.2_290421;122;1;Chronos;<ChronosDeviceInfo><FriendlyName>MyChronos</FriendlyName><DeviceIndex>1</DeviceIndex><SerialNumber>CHR-04301-1186</SerialNumber><EBNVersion>3.0.3.80</EBNVersion><FirmwareVersion>1.33</FirmwareVersion><APIVersion>1.33</APIVersion><USBHostControllerVersion>2.0</USBHostControllerVersion><USBConnectionRoute>USB#ROOT_HUB20#4&f63975&0#{f18a0e88-c30c-11d0-8815-00a0c906bed8} + USB#VID_8087&PID_0024#5&365d106a&0&1#{f18a0e88-c30c-11d0-8815-00a0c906bed8}(1) + VID_2266&PID_0007(2)</USBConnectionRoute></ChronosDeviceInfo>;"<?xml version=""1.0""?>\n<Clock xmlns:dt=""urn:schemas-microsoft-com:datatypes""><Description dt:dt=""string"">E-Prime Primary Realtime Clock</Description><StartTime><Timestamp dt:dt=""int"">0</Timestamp><DateUtc dt:dt=""string"">2013-09-14T07:42:29Z</DateUtc></StartTime><FrequencyChanges><FrequencyChange><Frequency dt:dt=""r8"">3312832</Frequency><Timestamp dt:dt=""r8"">594750072215</Timestamp><Current dt:dt=""r8"">0</Current><DateUtc dt:dt=""string"">2013-09-14T07:42:29Z</DateUtc></FrequencyChange></FrequencyChanges></Clock>\n";EXP2.2_290421-122-1;59.951;1.0.0.368;1;Chronos;2045189154;Full;3.0.3.80;3.0.3.80;09-14-2013;14/09/2013 07:42;09:42:29;3.0.3.82;2;Chronos;;2;1;2;TESTVV;Generalbloc;;;;pretest;Chronos;17;5;VV_110521/905.png;7;1;17;5;blocVVstim;listVVTrial;;;;Chronos;0;;0;1;1086251;200;;0;0;1;5;Chronos;0;0;1086451;300;5;536;1086987;1;5;Chronos;0;0;1086751;0;5;236;1086987;;;;;;;;;;;;;;;;;;;
EXP2.2_290421;122;1;Chronos;<ChronosDeviceInfo><FriendlyName>MyChronos</FriendlyName><DeviceIndex>1</DeviceIndex><SerialNumber>CHR-04301-1186</SerialNumber><EBNVersion>3.0.3.80</EBNVersion><FirmwareVersion>1.33</FirmwareVersion><APIVersion>1.33</APIVersion><USBHostControllerVersion>2.0</USBHostControllerVersion><USBConnectionRoute>USB#ROOT_HUB20#4&f63975&0#{f18a0e88-c30c-11d0-8815-00a0c906bed8} + USB#VID_8087&PID_0024#5&365d106a&0&1#{f18a0e88-c30c-11d0-8815-00a0c906bed8}(1) + VID_2266&PID_0007(2)</USBConnectionRoute></ChronosDeviceInfo>;"<?xml version=""1.0""?>\n<Clock xmlns:dt=""urn:schemas-microsoft-com:datatypes""><Description dt:dt=""string"">E-Prime Primary Realtime Clock</Description><StartTime><Timestamp dt:dt=""int"">0</Timestamp><DateUtc dt:dt=""string"">2013-09-14T07:42:29Z</DateUtc></StartTime><FrequencyChanges><FrequencyChange><Frequency dt:dt=""r8"">3312832</Frequency><Timestamp dt:dt=""r8"">594750072215</Timestamp><Current dt:dt=""r8"">0</Current><DateUtc dt:dt=""string"">2013-09-14T07:42:29Z</DateUtc></FrequencyChange></FrequencyChanges></Clock>\n";EXP2.2_290421-122-1;59.951;1.0.0.368;1;Chronos;2045189154;Full;3.0.3.80;3.0.3.80;09-14-2013;14/09/2013 07:42;09:42:29;3.0.3.82;2;Chronos;;2;1;2;TESTVV;Generalbloc;;;;pretest;Chronos;18;1;VV_110521/895.png;5;1;18;-5;blocVVstim;listVVTrial;;;;Chronos;0;;0;1;1088519;200;;0;0;0;1;Chronos;1;0;1088719;301;5;424;1089143;0;1;Chronos;0;1;1089020;0;5;123;1089143;;;;;;;;;;;;;;;;;;;
EXP2.2_290421;122;1;Chronos;<ChronosDeviceInfo><FriendlyName>MyChronos</FriendlyName><DeviceIndex>1</DeviceIndex><SerialNumber>CHR-04301-1186</SerialNumber><EBNVersion>3.0.3.80</EBNVersion><FirmwareVersion>1.33</FirmwareVersion><APIVersion>1.33</APIVersion><USBHostControllerVersion>2.0</USBHostControllerVersion><USBConnectionRoute>USB#ROOT_HUB20#4&f63975&0#{f18a0e88-c30c-11d0-8815-00a0c906bed8} + USB#VID_8087&PID_0024#5&365d106a&0&1#{f18a0e88-c30c-11d0-8815-00a0c906bed8}(1) + VID_2266&PID_0007(2)</USBConnectionRoute></ChronosDeviceInfo>;"<?xml version=""1.0""?>\n<Clock xmlns:dt=""urn:schemas-microsoft-com:datatypes""><Description dt:dt=""string"">E-Prime Primary Realtime Clock</Description><StartTime><Timestamp dt:dt=""int"">0</Timestamp><DateUtc dt:dt=""string"">2013-09-14T07:42:29Z</DateUtc></StartTime><FrequencyChanges><FrequencyChange><Frequency dt:dt=""r8"">3312832</Frequency><Timestamp dt:dt=""r8"">594750072215</Timestamp><Current dt:dt=""r8"">0</Current><DateUtc dt:dt=""string"">2013-09-14T07:42:29Z</DateUtc></FrequencyChange></FrequencyChanges></Clock>\n";EXP2.2_290421-122-1;59.951;1.0.0.368;1;Chronos;2045189154;Full;3.0.3.80;3.0.3.80;09-14-2013;14/09/2013 07:42;09:42:29;3.0.3.82;2;Chronos;;2;1;2;TESTVV;Generalbloc;;;;pretest;Chronos;19;5;VV_110521/915.png;9;1;19;15;blocVVstim;listVVTrial;;;;Chronos;0;;0;1;1090671;200;;0;0;1;5;Chronos;0;0;1090871;300;5;315;1091186;1;5;Chronos;1;0;1091171;0;5;15;1091186;;;;;;;;;;;;;;;;;;;
EXP2.2_290421;122;1;Chronos;<ChronosDeviceInfo><FriendlyName>MyChronos</FriendlyName><DeviceIndex>1</DeviceIndex><SerialNumber>CHR-04301-1186</SerialNumber><EBNVersion>3.0.3.80</EBNVersion><FirmwareVersion>1.33</FirmwareVersion><APIVersion>1.33</APIVersion><USBHostControllerVersion>2.0</USBHostControllerVersion><USBConnectionRoute>USB#ROOT_HUB20#4&f63975&0#{f18a0e88-c30c-11d0-8815-00a0c906bed8} + USB#VID_8087&PID_0024#5&365d106a&0&1#{f18a0e88-c30c-11d0-8815-00a0c906bed8}(1) + VID_2266&PID_0007(2)</USBConnectionRoute></ChronosDeviceInfo>;"<?xml version=""1.0""?>\n<Clock xmlns:dt=""urn:schemas-microsoft-com:datatypes""><Description dt:dt=""string"">E-Prime Primary Realtime Clock</Description><StartTime><Timestamp dt:dt=""int"">0</Timestamp><DateUtc dt:dt=""string"">2013-09-14T07:42:29Z</DateUtc></StartTime><FrequencyChanges><FrequencyChange><Frequency dt:dt=""r8"">3312832</Frequency><Timestamp dt:dt=""r8"">594750072215</Timestamp><Current dt:dt=""r8"">0</Current><DateUtc dt:dt=""string"">2013-09-14T07:42:29Z</DateUtc></FrequencyChange></FrequencyChanges></Clock>\n";EXP2.2_290421-122-1;59.951;1.0.0.368;1;Chronos;2045189154;Full;3.0.3.80;3.0.3.80;09-14-2013;14/09/2013 07:42;09:42:29;3.0.3.82;2;Chronos;;2;1;2;TESTVV;Generalbloc;;;;pretest;Chronos;20;1;VV_110521/890.png;4;1;20;-10;blocVVstim;listVVTrial;;;;Chronos;0;;0;1;1092723;200;;0;0;0;1;Chronos;0;0;1092923;0;5;203;1093126;0;;;-999999;0;0;0;;0;0;;;;;;;;;;;;;;;;;;;
EXP2.2_290421;122;1;Chronos;<ChronosDeviceInfo><FriendlyName>MyChronos</FriendlyName><DeviceIndex>1</DeviceIndex><SerialNumber>CHR-04301-1186</SerialNumber><EBNVersion>3.0.3.80</EBNVersion><FirmwareVersion>1.33</FirmwareVersion><APIVersion>1.33</APIVersion><USBHostControllerVersion>2.0</USBHostControllerVersion><USBConnectionRoute>USB#ROOT_HUB20#4&f63975&0#{f18a0e88-c30c-11d0-8815-00a0c906bed8} + USB#VID_8087&PID_0024#5&365d106a&0&1#{f18a0e88-c30c-11d0-8815-00a0c906bed8}(1) + VID_2266&PID_0007(2)</USBConnectionRoute></ChronosDeviceInfo>;"<?xml version=""1.0""?>\n<Clock xmlns:dt=""urn:schemas-microsoft-com:datatypes""><Description dt:dt=""string"">E-Prime Primary Realtime Clock</Description><StartTime><Timestamp dt:dt=""int"">0</Timestamp><DateUtc dt:dt=""string"">2013-09-14T07:42:29Z</DateUtc></StartTime><FrequencyChanges><FrequencyChange><Frequency dt:dt=""r8"">3312832</Frequency><Timestamp dt:dt=""r8"">594750072215</Timestamp><Current dt:dt=""r8"">0</Current><DateUtc dt:dt=""string"">2013-09-14T07:42:29Z</DateUtc></FrequencyChange></FrequencyChanges></Clock>\n";EXP2.2_290421-122-1;59.951;1.0.0.368;1;Chronos;2045189154;Full;3.0.3.80;3.0.3.80;09-14-2013;14/09/2013 07:42;09:42:29;3.0.3.82;2;Chronos;;2;1;2;TESTVV;Generalbloc;;;;pretest;Chronos;21;15;VV_110521/900.png;6;1;21;0;blocVVstim;listVVTrial;;;;Chronos;0;;0;2;1094658;200;;0;0;0;15;Chronos;0;0;1094858;0;5;162;1095020;0;;;-999999;0;0;0;;0;0;;;;;;;;;;;;;;;;;;;
EXP2.2_290421;122;1;Chronos;<ChronosDeviceInfo><FriendlyName>MyChronos</FriendlyName><DeviceIndex>1</DeviceIndex><SerialNumber>CHR-04301-1186</SerialNumber><EBNVersion>3.0.3.80</EBNVersion><FirmwareVersion>1.33</FirmwareVersion><APIVersion>1.33</APIVersion><USBHostControllerVersion>2.0</USBHostControllerVersion><USBConnectionRoute>USB#ROOT_HUB20#4&f63975&0#{f18a0e88-c30c-11d0-8815-00a0c906bed8} + USB#VID_8087&PID_0024#5&365d106a&0&1#{f18a0e88-c30c-11d0-8815-00a0c906bed8}(1) + VID_2266&PID_0007(2)</USBConnectionRoute></ChronosDeviceInfo>;"<?xml version=""1.0""?>\n<Clock xmlns:dt=""urn:schemas-microsoft-com:datatypes""><Description dt:dt=""string"">E-Prime Primary Realtime Clock</Description><StartTime><Timestamp dt:dt=""int"">0</Timestamp><DateUtc dt:dt=""string"">2013-09-14T07:42:29Z</DateUtc></StartTime><FrequencyChanges><FrequencyChange><Frequency dt:dt=""r8"">3312832</Frequency><Timestamp dt:dt=""r8"">594750072215</Timestamp><Current dt:dt=""r8"">0</Current><DateUtc dt:dt=""string"">2013-09-14T07:42:29Z</DateUtc></FrequencyChange></FrequencyChanges></Clock>\n";EXP2.2_290421-122-1;59.951;1.0.0.368;1;Chronos;2045189154;Full;3.0.3.80;3.0.3.80;09-14-2013;14/09/2013 07:42;09:42:29;3.0.3.82;2;Chronos;;2;1;2;TESTVV;Generalbloc;;;;pretest;Chronos;22;1;VV_110521/890.png;4;1;22;-10;blocVVstim;listVVTrial;;;;Chronos;0;;0;2;1096543;200;;0;0;0;1;Chronos;0;0;1096743;0;5;106;1096849;0;;;-999999;0;0;0;;0;0;;;;;;;;;;;;;;;;;;;
EXP2.2_290421;122;1;Chronos;<ChronosDeviceInfo><FriendlyName>MyChronos</FriendlyName><DeviceIndex>1</DeviceIndex><SerialNumber>CHR-04301-1186</SerialNumber><EBNVersion>3.0.3.80</EBNVersion><FirmwareVersion>1.33</FirmwareVersion><APIVersion>1.33</APIVersion><USBHostControllerVersion>2.0</USBHostControllerVersion><USBConnectionRoute>USB#ROOT_HUB20#4&f63975&0#{f18a0e88-c30c-11d0-8815-00a0c906bed8} + USB#VID_8087&PID_0024#5&365d106a&0&1#{f18a0e88-c30c-11d0-8815-00a0c906bed8}(1) + VID_2266&PID_0007(2)</USBConnectionRoute></ChronosDeviceInfo>;"<?xml version=""1.0""?>\n<Clock xmlns:dt=""urn:schemas-microsoft-com:datatypes""><Description dt:dt=""string"">E-Prime Primary Realtime Clock</Description><StartTime><Timestamp dt:dt=""int"">0</Timestamp><DateUtc dt:dt=""string"">2013-09-14T07:42:29Z</DateUtc></StartTime><FrequencyChanges><FrequencyChange><Frequency dt:dt=""r8"">3312832</Frequency><Timestamp dt:dt=""r8"">594750072215</Timestamp><Current dt:dt=""r8"">0</Current><DateUtc dt:dt=""string"">2013-09-14T07:42:29Z</DateUtc></FrequencyChange></FrequencyChanges></Clock>\n";EXP2.2_290421-122-1;59.951;1.0.0.368;1;Chronos;2045189154;Full;3.0.3.80;3.0.3.80;09-14-2013;14/09/2013 07:42;09:42:29;3.0.3.82;2;Chronos;;2;1;2;TESTVV;Generalbloc;;;;pretest;Chronos;23;1;VV_110521/890.png;4;1;23;-10;blocVVstim;listVVTrial;;;;Chronos;0;;1;1;1098377;201;;0;0;0;1;Chronos;0;1;1098578;300;5;305;1098883;0;1;Chronos;0;0;1098878;0;5;5;1098883;;;;;;;;;;;;;;;;;;;
EXP2.2_290421;122;1;Chronos;<ChronosDeviceInfo><FriendlyName>MyChronos</FriendlyName><DeviceIndex>1</DeviceIndex><SerialNumber>CHR-04301-1186</SerialNumber><EBNVersion>3.0.3.80</EBNVersion><FirmwareVersion>1.33</FirmwareVersion><APIVersion>1.33</APIVersion><USBHostControllerVersion>2.0</USBHostControllerVersion><USBConnectionRoute>USB#ROOT_HUB20#4&f63975&0#{f18a0e88-c30c-11d0-8815-00a0c906bed8} + USB#VID_8087&PID_0024#5&365d106a&0&1#{f18a0e88-c30c-11d0-8815-00a0c906bed8}(1) + VID_2266&PID_0007(2)</USBConnectionRoute></ChronosDeviceInfo>;"<?xml version=""1.0""?>\n<Clock xmlns:dt=""urn:schemas-microsoft-com:datatypes""><Description dt:dt=""string"">E-Prime Primary Realtime Clock</Description><StartTime><Timestamp dt:dt=""int"">0</Timestamp><DateUtc dt:dt=""string"">2013-09-14T07:42:29Z</DateUtc></StartTime><FrequencyChanges><FrequencyChange><Frequency dt:dt=""r8"">3312832</Frequency><Timestamp dt:dt=""r8"">594750072215</Timestamp><Current dt:dt=""r8"">0</Current><DateUtc dt:dt=""string"">2013-09-14T07:42:29Z</DateUtc></FrequencyChange></FrequencyChanges></Clock>\n";EXP2.2_290421-122-1;59.951;1.0.0.368;1;Chronos;2045189154;Full;3.0.3.80;3.0.3.80;09-14-2013;14/09/2013 07:42;09:42:29;3.0.3.82;2;Chronos;;2;1;2;TESTVV;Generalbloc;;;;pretest;Chronos;24;5;VV_110521/910.png;8;1;24;10;blocVVstim;listVVTrial;;;;Chronos;0;;1;1;1100412;201;;0;0;1;5;Chronos;0;1;1100613;300;5;348;1100961;1;5;Chronos;0;0;1100913;0;5;48;1100961;;;;;;;;;;;;;;;;;;;
EXP2.2_290421;122;1;Chronos;<ChronosDeviceInfo><FriendlyName>MyChronos</FriendlyName><DeviceIndex>1</DeviceIndex><SerialNumber>CHR-04301-1186</SerialNumber><EBNVersion>3.0.3.80</EBNVersion><FirmwareVersion>1.33</FirmwareVersion><APIVersion>1.33</APIVersion><USBHostControllerVersion>2.0</USBHostControllerVersion><USBConnectionRoute>USB#ROOT_HUB20#4&f63975&0#{f18a0e88-c30c-11d0-8815-00a0c906bed8} + USB#VID_8087&PID_0024#5&365d106a&0&1#{f18a0e88-c30c-11d0-8815-00a0c906bed8}(1) + VID_2266&PID_0007(2)</USBConnectionRoute></ChronosDeviceInfo>;"<?xml version=""1.0""?>\n<Clock xmlns:dt=""urn:schemas-microsoft-com:datatypes""><Description dt:dt=""string"">E-Prime Primary Realtime Clock</Description><StartTime><Timestamp dt:dt=""int"">0</Timestamp><DateUtc dt:dt=""string"">2013-09-14T07:42:29Z</DateUtc></StartTime><FrequencyChanges><FrequencyChange><Frequency dt:dt=""r8"">3312832</Frequency><Timestamp dt:dt=""r8"">594750072215</Timestamp><Current dt:dt=""r8"">0</Current><DateUtc dt:dt=""string"">2013-09-14T07:42:29Z</DateUtc></FrequencyChange></FrequencyChanges></Clock>\n";EXP2.2_290421-122-1;59.951;1.0.0.368;1;Chronos;2045189154;Full;3.0.3.80;3.0.3.80;09-14-2013;14/09/2013 07:42;09:42:29;3.0.3.82;2;Chronos;;2;1;2;TESTVV;Generalbloc;;;;pretest;Chronos;25;5;VV_110521/905.png;7;1;25;5;blocVVstim;listVVTrial;;;;Chronos;0;;0;2;1102498;200;;0;0;1;5;Chronos;0;0;1102698;300;5;1155;1103853;1;5;Chronos;0;0;1102998;0;5;855;1103853;;;;;;;;;;;;;;;;;;;
EXP2.2_290421;122;1;Chronos;<ChronosDeviceInfo><FriendlyName>MyChronos</FriendlyName><DeviceIndex>1</DeviceIndex><SerialNumber>CHR-04301-1186</SerialNumber><EBNVersion>3.0.3.80</EBNVersion><FirmwareVersion>1.33</FirmwareVersion><APIVersion>1.33</APIVersion><USBHostControllerVersion>2.0</USBHostControllerVersion><USBConnectionRoute>USB#ROOT_HUB20#4&f63975&0#{f18a0e88-c30c-11d0-8815-00a0c906bed8} + USB#VID_8087&PID_0024#5&365d106a&0&1#{f18a0e88-c30c-11d0-8815-00a0c906bed8}(1) + VID_2266&PID_0007(2)</USBConnectionRoute></ChronosDeviceInfo>;"<?xml version=""1.0""?>\n<Clock xmlns:dt=""urn:schemas-microsoft-com:datatypes""><Description dt:dt=""string"">E-Prime Primary Realtime Clock</Description><StartTime><Timestamp dt:dt=""int"">0</Timestamp><DateUtc dt:dt=""string"">2013-09-14T07:42:29Z</DateUtc></StartTime><FrequencyChanges><FrequencyChange><Frequency dt:dt=""r8"">3312832</Frequency><Timestamp dt:dt=""r8"">594750072215</Timestamp><Current dt:dt=""r8"">0</Current><DateUtc dt:dt=""string"">2013-09-14T07:42:29Z</DateUtc></FrequencyChange></FrequencyChanges></Clock>\n";EXP2.2_290421-122-1;59.951;1.0.0.368;1;Chronos;2045189154;Full;3.0.3.80;3.0.3.80;09-14-2013;14/09/2013 07:42;09:42:29;3.0.3.82;2;Chronos;;2;1;2;TESTVV;Generalbloc;;;;pretest;Chronos;26;1;VV_110521/880.png;2;1;26;-20;blocVVstim;listVVTrial;;;;Chronos;0;;0;1;1105383;200;;0;0;0;1;Chronos;0;0;1105583;301;5;949;1106532;0;1;Chronos;0;1;1105884;0;5;648;1106532;;;;;;;;;;;;;;;;;;;
EXP2.2_290421;122;1;Chronos;<ChronosDeviceInfo><FriendlyName>MyChronos</FriendlyName><DeviceIndex>1</DeviceIndex><SerialNumber>CHR-04301-1186</SerialNumber><EBNVersion>3.0.3.80</EBNVersion><FirmwareVersion>1.33</FirmwareVersion><APIVersion>1.33</APIVersion><USBHostControllerVersion>2.0</USBHostControllerVersion><USBConnectionRoute>USB#ROOT_HUB20#4&f63975&0#{f18a0e88-c30c-11d0-8815-00a0c906bed8} + USB#VID_8087&PID_0024#5&365d106a&0&1#{f18a0e88-c30c-11d0-8815-00a0c906bed8}(1) + VID_2266&PID_0007(2)</USBConnectionRoute></ChronosDeviceInfo>;"<?xml version=""1.0""?>\n<Clock xmlns:dt=""urn:schemas-microsoft-com:datatypes""><Description dt:dt=""string"">E-Prime Primary Realtime Clock</Description><StartTime><Timestamp dt:dt=""int"">0</Timestamp><DateUtc dt:dt=""string"">2013-09-14T07:42:29Z</DateUtc></StartTime><FrequencyChanges><FrequencyChange><Frequency dt:dt=""r8"">3312832</Frequency><Timestamp dt:dt=""r8"">594750072215</Timestamp><Current dt:dt=""r8"">0</Current><DateUtc dt:dt=""string"">2013-09-14T07:42:29Z</DateUtc></FrequencyChange></FrequencyChanges></Clock>\n";EXP2.2_290421-122-1;59.951;1.0.0.368;1;Chronos;2045189154;Full;3.0.3.80;3.0.3.80;09-14-2013;14/09/2013 07:42;09:42:29;3.0.3.82;2;Chronos;;2;1;2;TESTVV;Generalbloc;;;;pretest;Chronos;27;1;VV_110521/875.png;1;1;27;-25;blocVVstim;listVVTrial;;;;Chronos;0;;0;1;1108069;200;;0;0;1;1;Chronos;0;0;1108269;300;1;602;1108871;1;1;Chronos;0;0;1108569;0;1;302;1108871;;;;;;;;;;;;;;;;;;;
EXP2.2_290421;122;1;Chronos;<ChronosDeviceInfo><FriendlyName>MyChronos</FriendlyName><DeviceIndex>1</DeviceIndex><SerialNumber>CHR-04301-1186</SerialNumber><EBNVersion>3.0.3.80</EBNVersion><FirmwareVersion>1.33</FirmwareVersion><APIVersion>1.33</APIVersion><USBHostControllerVersion>2.0</USBHostControllerVersion><USBConnectionRoute>USB#ROOT_HUB20#4&f63975&0#{f18a0e88-c30c-11d0-8815-00a0c906bed8} + USB#VID_8087&PID_0024#5&365d106a&0&1#{f18a0e88-c30c-11d0-8815-00a0c906bed8}(1) + VID_2266&PID_0007(2)</USBConnectionRoute></ChronosDeviceInfo>;"<?xml version=""1.0""?>\n<Clock xmlns:dt=""urn:schemas-microsoft-com:datatypes""><Description dt:dt=""string"">E-Prime Primary Realtime Clock</Description><StartTime><Timestamp dt:dt=""int"">0</Timestamp><DateUtc dt:dt=""string"">2013-09-14T07:42:29Z</DateUtc></StartTime><FrequencyChanges><FrequencyChange><Frequency dt:dt=""r8"">3312832</Frequency><Timestamp dt:dt=""r8"">594750072215</Timestamp><Current dt:dt=""r8"">0</Current><DateUtc dt:dt=""string"">2013-09-14T07:42:29Z</DateUtc></FrequencyChange></FrequencyChanges></Clock>\n";EXP2.2_290421-122-1;59.951;1.0.0.368;1;Chronos;2045189154;Full;3.0.3.80;3.0.3.80;09-14-2013;14/09/2013 07:42;09:42:29;3.0.3.82;2;Chronos;;2;1;2;TESTVV;Generalbloc;;;;pretest;Chronos;28;5;VV_110521/905.png;7;1;28;5;blocVVstim;listVVTrial;;;;Chronos;0;;0;1;1110404;200;;0;0;1;5;Chronos;0;0;1110604;300;5;442;1111046;1;5;Chronos;1;0;1110904;0;5;142;1111046;;;;;;;;;;;;;;;;;;;
EXP2.2_290421;122;1;Chronos;<ChronosDeviceInfo><FriendlyName>MyChronos</FriendlyName><DeviceIndex>1</DeviceIndex><SerialNumber>CHR-04301-1186</SerialNumber><EBNVersion>3.0.3.80</EBNVersion><FirmwareVersion>1.33</FirmwareVersion><APIVersion>1.33</APIVersion><USBHostControllerVersion>2.0</USBHostControllerVersion><USBConnectionRoute>USB#ROOT_HUB20#4&f63975&0#{f18a0e88-c30c-11d0-8815-00a0c906bed8} + USB#VID_8087&PID_0024#5&365d106a&0&1#{f18a0e88-c30c-11d0-8815-00a0c906bed8}(1) + VID_2266&PID_0007(2)</USBConnectionRoute></ChronosDeviceInfo>;"<?xml version=""1.0""?>\n<Clock xmlns:dt=""urn:schemas-microsoft-com:datatypes""><Description dt:dt=""string"">E-Prime Primary Realtime Clock</Description><StartTime><Timestamp dt:dt=""int"">0</Timestamp><DateUtc dt:dt=""string"">2013-09-14T07:42:29Z</DateUtc></StartTime><FrequencyChanges><FrequencyChange><Frequency dt:dt=""r8"">3312832</Frequency><Timestamp dt:dt=""r8"">594750072215</Timestamp><Current dt:dt=""r8"">0</Current><DateUtc dt:dt=""string"">2013-09-14T07:42:29Z</DateUtc></FrequencyChange></FrequencyChanges></Clock>\n";EXP2.2_290421-122-1;59.951;1.0.0.368;1;Chronos;2045189154;Full;3.0.3.80;3.0.3.80;09-14-2013;14/09/2013 07:42;09:42:29;3.0.3.82;2;Chronos;;2;1;2;TESTVV;Generalbloc;;;;pretest;Chronos;29;1;VV_110521/885.png;3;1;29;-15;blocVVstim;listVVTrial;;;;Chronos;0;;0;2;1112573;200;;0;0;1;1;Chronos;0;0;1112773;300;1;694;1113467;1;1;Chronos;0;0;1113073;0;1;394;1113467;;;;;;;;;;;;;;;;;;;
EXP2.2_290421;122;1;Chronos;<ChronosDeviceInfo><FriendlyName>MyChronos</FriendlyName><DeviceIndex>1</DeviceIndex><SerialNumber>CHR-04301-1186</SerialNumber><EBNVersion>3.0.3.80</EBNVersion><FirmwareVersion>1.33</FirmwareVersion><APIVersion>1.33</APIVersion><USBHostControllerVersion>2.0</USBHostControllerVersion><USBConnectionRoute>USB#ROOT_HUB20#4&f63975&0#{f18a0e88-c30c-11d0-8815-00a0c906bed8} + USB#VID_8087&PID_0024#5&365d106a&0&1#{f18a0e88-c30c-11d0-8815-00a0c906bed8}(1) + VID_2266&PID_0007(2)</USBConnectionRoute></ChronosDeviceInfo>;"<?xml version=""1.0""?>\n<Clock xmlns:dt=""urn:schemas-microsoft-com:datatypes""><Description dt:dt=""string"">E-Prime Primary Realtime Clock</Description><StartTime><Timestamp dt:dt=""int"">0</Timestamp><DateUtc dt:dt=""string"">2013-09-14T07:42:29Z</DateUtc></StartTime><FrequencyChanges><FrequencyChange><Frequency dt:dt=""r8"">3312832</Frequency><Timestamp dt:dt=""r8"">594750072215</Timestamp><Current dt:dt=""r8"">0</Current><DateUtc dt:dt=""string"">2013-09-14T07:42:29Z</DateUtc></FrequencyChange></FrequencyChanges></Clock>\n";EXP2.2_290421-122-1;59.951;1.0.0.368;1;Chronos;2045189154;Full;3.0.3.80;3.0.3.80;09-14-2013;14/09/2013 07:42;09:42:29;3.0.3.82;2;Chronos;;2;1;2;TESTVV;Generalbloc;;;;pretest;Chronos;30;5;VV_110521/915.png;9;1;30;15;blocVVstim;listVVTrial;;;;Chronos;0;;0;1;1114991;200;;0;0;1;5;Chronos;0;0;1115191;301;5;424;1115615;1;5;Chronos;0;1;1115492;0;5;123;1115615;;;;;;;;;;;;;;;;;;;
EXP2.2_290421;122;1;Chronos;<ChronosDeviceInfo><FriendlyName>MyChronos</FriendlyName><DeviceIndex>1</DeviceIndex><SerialNumber>CHR-04301-1186</SerialNumber><EBNVersion>3.0.3.80</EBNVersion><FirmwareVersion>1.33</FirmwareVersion><APIVersion>1.33</APIVersion><USBHostControllerVersion>2.0</USBHostControllerVersion><USBConnectionRoute>USB#ROOT_HUB20#4&f63975&0#{f18a0e88-c30c-11d0-8815-00a0c906bed8} + USB#VID_8087&PID_0024#5&365d106a&0&1#{f18a0e88-c30c-11d0-8815-00a0c906bed8}(1) + VID_2266&PID_0007(2)</USBConnectionRoute></ChronosDeviceInfo>;"<?xml version=""1.0""?>\n<Clock xmlns:dt=""urn:schemas-microsoft-com:datatypes""><Description dt:dt=""string"">E-Prime Primary Realtime Clock</Description><StartTime><Timestamp dt:dt=""int"">0</Timestamp><DateUtc dt:dt=""string"">2013-09-14T07:42:29Z</DateUtc></StartTime><FrequencyChanges><FrequencyChange><Frequency dt:dt=""r8"">3312832</Frequency><Timestamp dt:dt=""r8"">594750072215</Timestamp><Current dt:dt=""r8"">0</Current><DateUtc dt:dt=""string"">2013-09-14T07:42:29Z</DateUtc></FrequencyChange></FrequencyChanges></Clock>\n";EXP2.2_290421-122-1;59.951;1.0.0.368;1;Chronos;2045189154;Full;3.0.3.80;3.0.3.80;09-14-2013;14/09/2013 07:42;09:42:29;3.0.3.82;2;Chronos;;2;1;2;TESTVV;Generalbloc;;;;pretest;Chronos;31;1;VV_110521/895.png;5;1;31;-5;blocVVstim;listVVTrial;;;;Chronos;0;;0;1;1117143;200;;0;0;0;1;Chronos;0;0;1117343;300;5;400;1117743;0;1;Chronos;0;0;1117643;0;5;100;1117743;;;;;;;;;;;;;;;;;;;
EXP2.2_290421;122;1;Chronos;<ChronosDeviceInfo><FriendlyName>MyChronos</FriendlyName><DeviceIndex>1</DeviceIndex><SerialNumber>CHR-04301-1186</SerialNumber><EBNVersion>3.0.3.80</EBNVersion><FirmwareVersion>1.33</FirmwareVersion><APIVersion>1.33</APIVersion><USBHostControllerVersion>2.0</USBHostControllerVersion><USBConnectionRoute>USB#ROOT_HUB20#4&f63975&0#{f18a0e88-c30c-11d0-8815-00a0c906bed8} + USB#VID_8087&PID_0024#5&365d106a&0&1#{f18a0e88-c30c-11d0-8815-00a0c906bed8}(1) + VID_2266&PID_0007(2)</USBConnectionRoute></ChronosDeviceInfo>;"<?xml version=""1.0""?>\n<Clock xmlns:dt=""urn:schemas-microsoft-com:datatypes""><Description dt:dt=""string"">E-Prime Primary Realtime Clock</Description><StartTime><Timestamp dt:dt=""int"">0</Timestamp><DateUtc dt:dt=""string"">2013-09-14T07:42:29Z</DateUtc></StartTime><FrequencyChanges><FrequencyChange><Frequency dt:dt=""r8"">3312832</Frequency><Timestamp dt:dt=""r8"">594750072215</Timestamp><Current dt:dt=""r8"">0</Current><DateUtc dt:dt=""string"">2013-09-14T07:42:29Z</DateUtc></FrequencyChange></FrequencyChanges></Clock>\n";EXP2.2_290421-122-1;59.951;1.0.0.368;1;Chronos;2045189154;Full;3.0.3.80;3.0.3.80;09-14-2013;14/09/2013 07:42;09:42:29;3.0.3.82;2;Chronos;;2;1;2;TESTVV;Generalbloc;;;;pretest;Chronos;32;1;VV_110521/880.png;2;1;32;-20;blocVVstim;listVVTrial;;;;Chronos;0;;0;1;1119278;200;;0;0;0;1;Chronos;0;0;1119478;0;5;269;1119747;0;;;-999999;0;0;0;;0;0;;;;;;;;;;;;;;;;;;;
EXP2.2_290421;122;1;Chronos;<ChronosDeviceInfo><FriendlyName>MyChronos</FriendlyName><DeviceIndex>1</DeviceIndex><SerialNumber>CHR-04301-1186</SerialNumber><EBNVersion>3.0.3.80</EBNVersion><FirmwareVersion>1.33</FirmwareVersion><APIVersion>1.33</APIVersion><USBHostControllerVersion>2.0</USBHostControllerVersion><USBConnectionRoute>USB#ROOT_HUB20#4&f63975&0#{f18a0e88-c30c-11d0-8815-00a0c906bed8} + USB#VID_8087&PID_0024#5&365d106a&0&1#{f18a0e88-c30c-11d0-8815-00a0c906bed8}(1) + VID_2266&PID_0007(2)</USBConnectionRoute></ChronosDeviceInfo>;"<?xml version=""1.0""?>\n<Clock xmlns:dt=""urn:schemas-microsoft-com:datatypes""><Description dt:dt=""string"">E-Prime Primary Realtime Clock</Description><StartTime><Timestamp dt:dt=""int"">0</Timestamp><DateUtc dt:dt=""string"">2013-09-14T07:42:29Z</DateUtc></StartTime><FrequencyChanges><FrequencyChange><Frequency dt:dt=""r8"">3312832</Frequency><Timestamp dt:dt=""r8"">594750072215</Timestamp><Current dt:dt=""r8"">0</Current><DateUtc dt:dt=""string"">2013-09-14T07:42:29Z</DateUtc></FrequencyChange></FrequencyChanges></Clock>\n";EXP2.2_290421-122-1;59.951;1.0.0.368;1;Chronos;2045189154;Full;3.0.3.80;3.0.3.80;09-14-2013;14/09/2013 07:42;09:42:29;3.0.3.82;2;Chronos;;2;1;2;TESTVV;Generalbloc;;;;pretest;Chronos;33;5;VV_110521/925.png;11;1;33;25;blocVVstim;listVVTrial;;;;Chronos;0;;0;2;1121280;200;;0;0;1;5;Chronos;0;0;1121480;300;5;591;1122071;1;5;Chronos;0;0;1121780;0;5;291;1122071;;;;;;;;;;;;;;;;;;;
EXP2.2_290421;122;1;Chronos;<ChronosDeviceInfo><FriendlyName>MyChronos</FriendlyName><DeviceIndex>1</DeviceIndex><SerialNumber>CHR-04301-1186</SerialNumber><EBNVersion>3.0.3.80</EBNVersion><FirmwareVersion>1.33</FirmwareVersion><APIVersion>1.33</APIVersion><USBHostControllerVersion>2.0</USBHostControllerVersion><USBConnectionRoute>USB#ROOT_HUB20#4&f63975&0#{f18a0e88-c30c-11d0-8815-00a0c906bed8} + USB#VID_8087&PID_0024#5&365d106a&0&1#{f18a0e88-c30c-11d0-8815-00a0c906bed8}(1) + VID_2266&PID_0007(2)</USBConnectionRoute></ChronosDeviceInfo>;"<?xml version=""1.0""?>\n<Clock xmlns:dt=""urn:schemas-microsoft-com:datatypes""><Description dt:dt=""string"">E-Prime Primary Realtime Clock</Description><StartTime><Timestamp dt:dt=""int"">0</Timestamp><DateUtc dt:dt=""string"">2013-09-14T07:42:29Z</DateUtc></StartTime><FrequencyChanges><FrequencyChange><Frequency dt:dt=""r8"">3312832</Frequency><Timestamp dt:dt=""r8"">594750072215</Timestamp><Current dt:dt=""r8"">0</Current><DateUtc dt:dt=""string"">2013-09-14T07:42:29Z</DateUtc></FrequencyChange></FrequencyChanges></Clock>\n";EXP2.2_290421-122-1;59.951;1.0.0.368;1;Chronos;2045189154;Full;3.0.3.80;3.0.3.80;09-14-2013;14/09/2013 07:42;09:42:29;3.0.3.82;2;Chronos;;2;1;2;TESTVV;Generalbloc;;;;pretest;Chronos;34;5;VV_110521/910.png;8;1;34;10;blocVVstim;listVVTrial;;;;Chronos;0;;0;1;1123598;200;;0;0;1;5;Chronos;1;0;1123798;301;5;771;1124569;1;5;Chronos;0;1;1124099;0;5;470;1124569;;;;;;;;;;;;;;;;;;;
EXP2.2_290421;122;1;Chronos;<ChronosDeviceInfo><FriendlyName>MyChronos</FriendlyName><DeviceIndex>1</DeviceIndex><SerialNumber>CHR-04301-1186</SerialNumber><EBNVersion>3.0.3.80</EBNVersion><FirmwareVersion>1.33</FirmwareVersion><APIVersion>1.33</APIVersion><USBHostControllerVersion>2.0</USBHostControllerVersion><USBConnectionRoute>USB#ROOT_HUB20#4&f63975&0#{f18a0e88-c30c-11d0-8815-00a0c906bed8} + USB#VID_8087&PID_0024#5&365d106a&0&1#{f18a0e88-c30c-11d0-8815-00a0c906bed8}(1) + VID_2266&PID_0007(2)</USBConnectionRoute></ChronosDeviceInfo>;"<?xml version=""1.0""?>\n<Clock xmlns:dt=""urn:schemas-microsoft-com:datatypes""><Description dt:dt=""string"">E-Prime Primary Realtime Clock</Description><StartTime><Timestamp dt:dt=""int"">0</Timestamp><DateUtc dt:dt=""string"">2013-09-14T07:42:29Z</DateUtc></StartTime><FrequencyChanges><FrequencyChange><Frequency dt:dt=""r8"">3312832</Frequency><Timestamp dt:dt=""r8"">594750072215</Timestamp><Current dt:dt=""r8"">0</Current><DateUtc dt:dt=""string"">2013-09-14T07:42:29Z</DateUtc></FrequencyChange></FrequencyChanges></Clock>\n";EXP2.2_290421-122-1;59.951;1.0.0.368;1;Chronos;2045189154;Full;3.0.3.80;3.0.3.80;09-14-2013;14/09/2013 07:42;09:42:29;3.0.3.82;2;Chronos;;2;1;2;TESTVV;Generalbloc;;;;pretest;Chronos;35;1;VV_110521/890.png;4;1;35;-10;blocVVstim;listVVTrial;;;;Chronos;0;;0;1;1126100;201;;0;0;0;1;Chronos;0;1;1126301;300;5;1036;1127337;0;1;Chronos;0;0;1126601;0;5;736;1127337;;;;;;;;;;;;;;;;;;;
EXP2.2_290421;122;1;Chronos;<ChronosDeviceInfo><FriendlyName>MyChronos</FriendlyName><DeviceIndex>1</DeviceIndex><SerialNumber>CHR-04301-1186</SerialNumber><EBNVersion>3.0.3.80</EBNVersion><FirmwareVersion>1.33</FirmwareVersion><APIVersion>1.33</APIVersion><USBHostControllerVersion>2.0</USBHostControllerVersion><USBConnectionRoute>USB#ROOT_HUB20#4&f63975&0#{f18a0e88-c30c-11d0-8815-00a0c906bed8} + USB#VID_8087&PID_0024#5&365d106a&0&1#{f18a0e88-c30c-11d0-8815-00a0c906bed8}(1) + VID_2266&PID_0007(2)</USBConnectionRoute></ChronosDeviceInfo>;"<?xml version=""1.0""?>\n<Clock xmlns:dt=""urn:schemas-microsoft-com:datatypes""><Description dt:dt=""string"">E-Prime Primary Realtime Clock</Description><StartTime><Timestamp dt:dt=""int"">0</Timestamp><DateUtc dt:dt=""string"">2013-09-14T07:42:29Z</DateUtc></StartTime><FrequencyChanges><FrequencyChange><Frequency dt:dt=""r8"">3312832</Frequency><Timestamp dt:dt=""r8"">594750072215</Timestamp><Current dt:dt=""r8"">0</Current><DateUtc dt:dt=""string"">2013-09-14T07:42:29Z</DateUtc></FrequencyChange></FrequencyChanges></Clock>\n";EXP2.2_290421-122-1;59.951;1.0.0.368;1;Chronos;2045189154;Full;3.0.3.80;3.0.3.80;09-14-2013;14/09/2013 07:42;09:42:29;3.0.3.82;2;Chronos;;2;1;2;TESTVV;Generalbloc;;;;pretest;Chronos;36;15;VV_110521/900.png;6;1;36;0;blocVVstim;listVVTrial;;;;Chronos;0;;0;1;1128869;201;;0;0;0;15;Chronos;0;1;1129070;300;5;353;1129423;0;15;Chronos;0;0;1129370;0;5;53;1129423;;;;;;;;;;;;;;;;;;;
EXP2.2_290421;122;1;Chronos;<ChronosDeviceInfo><FriendlyName>MyChronos</FriendlyName><DeviceIndex>1</DeviceIndex><SerialNumber>CHR-04301-1186</SerialNumber><EBNVersion>3.0.3.80</EBNVersion><FirmwareVersion>1.33</FirmwareVersion><APIVersion>1.33</APIVersion><USBHostControllerVersion>2.0</USBHostControllerVersion><USBConnectionRoute>USB#ROOT_HUB20#4&f63975&0#{f18a0e88-c30c-11d0-8815-00a0c906bed8} + USB#VID_8087&PID_0024#5&365d106a&0&1#{f18a0e88-c30c-11d0-8815-00a0c906bed8}(1) + VID_2266&PID_0007(2)</USBConnectionRoute></ChronosDeviceInfo>;"<?xml version=""1.0""?>\n<Clock xmlns:dt=""urn:schemas-microsoft-com:datatypes""><Description dt:dt=""string"">E-Prime Primary Realtime Clock</Description><StartTime><Timestamp dt:dt=""int"">0</Timestamp><DateUtc dt:dt=""string"">2013-09-14T07:42:29Z</DateUtc></StartTime><FrequencyChanges><FrequencyChange><Frequency dt:dt=""r8"">3312832</Frequency><Timestamp dt:dt=""r8"">594750072215</Timestamp><Current dt:dt=""r8"">0</Current><DateUtc dt:dt=""string"">2013-09-14T07:42:29Z</DateUtc></FrequencyChange></FrequencyChanges></Clock>\n";EXP2.2_290421-122-1;59.951;1.0.0.368;1;Chronos;2045189154;Full;3.0.3.80;3.0.3.80;09-14-2013;14/09/2013 07:42;09:42:29;3.0.3.82;2;Chronos;;2;1;2;TESTVV;Generalbloc;;;;pretest;Chronos;37;5;VV_110521/920.png;10;1;37;20;blocVVstim;listVVTrial;;;;Chronos;0;;0;1;1130954;201;;0;0;1;5;Chronos;0;1;1131155;0;5;236;1131391;0;;;-999999;0;0;0;;0;0;;;;;;;;;;;;;;;;;;;
EXP2.2_290421;122;1;Chronos;<ChronosDeviceInfo><FriendlyName>MyChronos</FriendlyName><DeviceIndex>1</DeviceIndex><SerialNumber>CHR-04301-1186</SerialNumber><EBNVersion>3.0.3.80</EBNVersion><FirmwareVersion>1.33</FirmwareVersion><APIVersion>1.33</APIVersion><USBHostControllerVersion>2.0</USBHostControllerVersion><USBConnectionRoute>USB#ROOT_HUB20#4&f63975&0#{f18a0e88-c30c-11d0-8815-00a0c906bed8} + USB#VID_8087&PID_0024#5&365d106a&0&1#{f18a0e88-c30c-11d0-8815-00a0c906bed8}(1) + VID_2266&PID_0007(2)</USBConnectionRoute></ChronosDeviceInfo>;"<?xml version=""1.0""?>\n<Clock xmlns:dt=""urn:schemas-microsoft-com:datatypes""><Description dt:dt=""string"">E-Prime Primary Realtime Clock</Description><StartTime><Timestamp dt:dt=""int"">0</Timestamp><DateUtc dt:dt=""string"">2013-09-14T07:42:29Z</DateUtc></StartTime><FrequencyChanges><FrequencyChange><Frequency dt:dt=""r8"">3312832</Frequency><Timestamp dt:dt=""r8"">594750072215</Timestamp><Current dt:dt=""r8"">0</Current><DateUtc dt:dt=""string"">2013-09-14T07:42:29Z</DateUtc></FrequencyChange></FrequencyChanges></Clock>\n";EXP2.2_290421-122-1;59.951;1.0.0.368;1;Chronos;2045189154;Full;3.0.3.80;3.0.3.80;09-14-2013;14/09/2013 07:42;09:42:29;3.0.3.82;2;Chronos;;2;1;2;TESTVV;Generalbloc;;;;pretest;Chronos;38;5;VV_110521/925.png;11;1;38;25;blocVVstim;listVVTrial;;;;Chronos;0;;0;2;1132923;200;;0;0;1;5;Chronos;0;0;1133123;300;5;415;1133538;1;5;Chronos;0;0;1133423;0;5;115;1133538;;;;;;;;;;;;;;;;;;;
EXP2.2_290421;122;1;Chronos;<ChronosDeviceInfo><FriendlyName>MyChronos</FriendlyName><DeviceIndex>1</DeviceIndex><SerialNumber>CHR-04301-1186</SerialNumber><EBNVersion>3.0.3.80</EBNVersion><FirmwareVersion>1.33</FirmwareVersion><APIVersion>1.33</APIVersion><USBHostControllerVersion>2.0</USBHostControllerVersion><USBConnectionRoute>USB#ROOT_HUB20#4&f63975&0#{f18a0e88-c30c-11d0-8815-00a0c906bed8} + USB#VID_8087&PID_0024#5&365d106a&0&1#{f18a0e88-c30c-11d0-8815-00a0c906bed8}(1) + VID_2266&PID_0007(2)</USBConnectionRoute></ChronosDeviceInfo>;"<?xml version=""1.0""?>\n<Clock xmlns:dt=""urn:schemas-microsoft-com:datatypes""><Description dt:dt=""string"">E-Prime Primary Realtime Clock</Description><StartTime><Timestamp dt:dt=""int"">0</Timestamp><DateUtc dt:dt=""string"">2013-09-14T07:42:29Z</DateUtc></StartTime><FrequencyChanges><FrequencyChange><Frequency dt:dt=""r8"">3312832</Frequency><Timestamp dt:dt=""r8"">594750072215</Timestamp><Current dt:dt=""r8"">0</Current><DateUtc dt:dt=""string"">2013-09-14T07:42:29Z</DateUtc></FrequencyChange></FrequencyChanges></Clock>\n";EXP2.2_290421-122-1;59.951;1.0.0.368;1;Chronos;2045189154;Full;3.0.3.80;3.0.3.80;09-14-2013;14/09/2013 07:42;09:42:29;3.0.3.82;2;Chronos;;2;1;2;TESTVV;Generalbloc;;;;pretest;Chronos;39;5;VV_110521/905.png;7;1;39;5;blocVVstim;listVVTrial;;;;Chronos;0;;1;1;1135074;201;;0;0;0;5;Chronos;0;1;1135275;300;1;840;1136115;0;5;Chronos;0;0;1135575;0;1;540;1136115;;;;;;;;;;;;;;;;;;;
EXP2.2_290421;122;1;Chronos;<ChronosDeviceInfo><FriendlyName>MyChronos</FriendlyName><DeviceIndex>1</DeviceIndex><SerialNumber>CHR-04301-1186</SerialNumber><EBNVersion>3.0.3.80</EBNVersion><FirmwareVersion>1.33</FirmwareVersion><APIVersion>1.33</APIVersion><USBHostControllerVersion>2.0</USBHostControllerVersion><USBConnectionRoute>USB#ROOT_HUB20#4&f63975&0#{f18a0e88-c30c-11d0-8815-00a0c906bed8} + USB#VID_8087&PID_0024#5&365d106a&0&1#{f18a0e88-c30c-11d0-8815-00a0c906bed8}(1) + VID_2266&PID_0007(2)</USBConnectionRoute></ChronosDeviceInfo>;"<?xml version=""1.0""?>\n<Clock xmlns:dt=""urn:schemas-microsoft-com:datatypes""><Description dt:dt=""string"">E-Prime Primary Realtime Clock</Description><StartTime><Timestamp dt:dt=""int"">0</Timestamp><DateUtc dt:dt=""string"">2013-09-14T07:42:29Z</DateUtc></StartTime><FrequencyChanges><FrequencyChange><Frequency dt:dt=""r8"">3312832</Frequency><Timestamp dt:dt=""r8"">594750072215</Timestamp><Current dt:dt=""r8"">0</Current><DateUtc dt:dt=""string"">2013-09-14T07:42:29Z</DateUtc></FrequencyChange></FrequencyChanges></Clock>\n";EXP2.2_290421-122-1;59.951;1.0.0.368;1;Chronos;2045189154;Full;3.0.3.80;3.0.3.80;09-14-2013;14/09/2013 07:42;09:42:29;3.0.3.82;2;Chronos;;2;1;2;TESTVV;Generalbloc;;;;pretest;Chronos;40;1;VV_110521/880.png;2;1;40;-20;blocVVstim;listVVTrial;;;;Chronos;0;;0;1;1137643;200;;0;0;0;1;Chronos;0;0;1137843;0;5;221;1138064;0;;;-999999;0;0;0;;0;0;;;;;;;;;;;;;;;;;;;
EXP2.2_290421;122;1;Chronos;<ChronosDeviceInfo><FriendlyName>MyChronos</FriendlyName><DeviceIndex>1</DeviceIndex><SerialNumber>CHR-04301-1186</SerialNumber><EBNVersion>3.0.3.80</EBNVersion><FirmwareVersion>1.33</FirmwareVersion><APIVersion>1.33</APIVersion><USBHostControllerVersion>2.0</USBHostControllerVersion><USBConnectionRoute>USB#ROOT_HUB20#4&f63975&0#{f18a0e88-c30c-11d0-8815-00a0c906bed8} + USB#VID_8087&PID_0024#5&365d106a&0&1#{f18a0e88-c30c-11d0-8815-00a0c906bed8}(1) + VID_2266&PID_0007(2)</USBConnectionRoute></ChronosDeviceInfo>;"<?xml version=""1.0""?>\n<Clock xmlns:dt=""urn:schemas-microsoft-com:datatypes""><Description dt:dt=""string"">E-Prime Primary Realtime Clock</Description><StartTime><Timestamp dt:dt=""int"">0</Timestamp><DateUtc dt:dt=""string"">2013-09-14T07:42:29Z</DateUtc></StartTime><FrequencyChanges><FrequencyChange><Frequency dt:dt=""r8"">3312832</Frequency><Timestamp dt:dt=""r8"">594750072215</Timestamp><Current dt:dt=""r8"">0</Current><DateUtc dt:dt=""string"">2013-09-14T07:42:29Z</DateUtc></FrequencyChange></FrequencyChanges></Clock>\n";EXP2.2_290421-122-1;59.951;1.0.0.368;1;Chronos;2045189154;Full;3.0.3.80;3.0.3.80;09-14-2013;14/09/2013 07:42;09:42:29;3.0.3.82;2;Chronos;;2;1;2;TESTVV;Generalbloc;;;;pretest;Chronos;41;5;VV_110521/910.png;8;1;41;10;blocVVstim;listVVTrial;;;;Chronos;0;;0;1;1139595;200;;0;0;1;5;Chronos;0;0;1139795;300;5;490;1140285;1;5;Chronos;0;0;1140095;0;5;190;1140285;;;;;;;;;;;;;;;;;;;
EXP2.2_290421;122;1;Chronos;<ChronosDeviceInfo><FriendlyName>MyChronos</FriendlyName><DeviceIndex>1</DeviceIndex><SerialNumber>CHR-04301-1186</SerialNumber><EBNVersion>3.0.3.80</EBNVersion><FirmwareVersion>1.33</FirmwareVersion><APIVersion>1.33</APIVersion><USBHostControllerVersion>2.0</USBHostControllerVersion><USBConnectionRoute>USB#ROOT_HUB20#4&f63975&0#{f18a0e88-c30c-11d0-8815-00a0c906bed8} + USB#VID_8087&PID_0024#5&365d106a&0&1#{f18a0e88-c30c-11d0-8815-00a0c906bed8}(1) + VID_2266&PID_0007(2)</USBConnectionRoute></ChronosDeviceInfo>;"<?xml version=""1.0""?>\n<Clock xmlns:dt=""urn:schemas-microsoft-com:datatypes""><Description dt:dt=""string"">E-Prime Primary Realtime Clock</Description><StartTime><Timestamp dt:dt=""int"">0</Timestamp><DateUtc dt:dt=""string"">2013-09-14T07:42:29Z</DateUtc></StartTime><FrequencyChanges><FrequencyChange><Frequency dt:dt=""r8"">3312832</Frequency><Timestamp dt:dt=""r8"">594750072215</Timestamp><Current dt:dt=""r8"">0</Current><DateUtc dt:dt=""string"">2013-09-14T07:42:29Z</DateUtc></FrequencyChange></FrequencyChanges></Clock>\n";EXP2.2_290421-122-1;59.951;1.0.0.368;1;Chronos;2045189154;Full;3.0.3.80;3.0.3.80;09-14-2013;14/09/2013 07:42;09:42:29;3.0.3.82;2;Chronos;;2;1;2;TESTVV;Generalbloc;;;;pretest;Chronos;42;1;VV_110521/880.png;2;1;42;-20;blocVVstim;listVVTrial;;;;Chronos;0;;0;1;1141813;201;;0;0;0;1;Chronos;0;1;1142014;300;5;692;1142706;0;1;Chronos;0;0;1142314;0;5;392;1142706;;;;;;;;;;;;;;;;;;;
EXP2.2_290421;122;1;Chronos;<ChronosDeviceInfo><FriendlyName>MyChronos</FriendlyName><DeviceIndex>1</DeviceIndex><SerialNumber>CHR-04301-1186</SerialNumber><EBNVersion>3.0.3.80</EBNVersion><FirmwareVersion>1.33</FirmwareVersion><APIVersion>1.33</APIVersion><USBHostControllerVersion>2.0</USBHostControllerVersion><USBConnectionRoute>USB#ROOT_HUB20#4&f63975&0#{f18a0e88-c30c-11d0-8815-00a0c906bed8} + USB#VID_8087&PID_0024#5&365d106a&0&1#{f18a0e88-c30c-11d0-8815-00a0c906bed8}(1) + VID_2266&PID_0007(2)</USBConnectionRoute></ChronosDeviceInfo>;"<?xml version=""1.0""?>\n<Clock xmlns:dt=""urn:schemas-microsoft-com:datatypes""><Description dt:dt=""string"">E-Prime Primary Realtime Clock</Description><StartTime><Timestamp dt:dt=""int"">0</Timestamp><DateUtc dt:dt=""string"">2013-09-14T07:42:29Z</DateUtc></StartTime><FrequencyChanges><FrequencyChange><Frequency dt:dt=""r8"">3312832</Frequency><Timestamp dt:dt=""r8"">594750072215</Timestamp><Current dt:dt=""r8"">0</Current><DateUtc dt:dt=""string"">2013-09-14T07:42:29Z</DateUtc></FrequencyChange></FrequencyChanges></Clock>\n";EXP2.2_290421-122-1;59.951;1.0.0.368;1;Chronos;2045189154;Full;3.0.3.80;3.0.3.80;09-14-2013;14/09/2013 07:42;09:42:29;3.0.3.82;2;Chronos;;2;1;2;TESTVV;Generalbloc;;;;pretest;Chronos;43;1;VV_110521/885.png;3;1;43;-15;blocVVstim;listVVTrial;;;;Chronos;0;;0;1;1144232;200;;0;0;1;1;Chronos;0;0;1144432;300;1;361;1144793;1;1;Chronos;1;0;1144732;0;1;61;1144793;;;;;;;;;;;;;;;;;;;
EXP2.2_290421;122;1;Chronos;<ChronosDeviceInfo><FriendlyName>MyChronos</FriendlyName><DeviceIndex>1</DeviceIndex><SerialNumber>CHR-04301-1186</SerialNumber><EBNVersion>3.0.3.80</EBNVersion><FirmwareVersion>1.33</FirmwareVersion><APIVersion>1.33</APIVersion><USBHostControllerVersion>2.0</USBHostControllerVersion><USBConnectionRoute>USB#ROOT_HUB20#4&f63975&0#{f18a0e88-c30c-11d0-8815-00a0c906bed8} + USB#VID_8087&PID_0024#5&365d106a&0&1#{f18a0e88-c30c-11d0-8815-00a0c906bed8}(1) + VID_2266&PID_0007(2)</USBConnectionRoute></ChronosDeviceInfo>;"<?xml version=""1.0""?>\n<Clock xmlns:dt=""urn:schemas-microsoft-com:datatypes""><Description dt:dt=""string"">E-Prime Primary Realtime Clock</Description><StartTime><Timestamp dt:dt=""int"">0</Timestamp><DateUtc dt:dt=""string"">2013-09-14T07:42:29Z</DateUtc></StartTime><FrequencyChanges><FrequencyChange><Frequency dt:dt=""r8"">3312832</Frequency><Timestamp dt:dt=""r8"">594750072215</Timestamp><Current dt:dt=""r8"">0</Current><DateUtc dt:dt=""string"">2013-09-14T07:42:29Z</DateUtc></FrequencyChange></FrequencyChanges></Clock>\n";EXP2.2_290421-122-1;59.951;1.0.0.368;1;Chronos;2045189154;Full;3.0.3.80;3.0.3.80;09-14-2013;14/09/2013 07:42;09:42:29;3.0.3.82;2;Chronos;;2;1;2;TESTVV;Generalbloc;;;;pretest;Chronos;44;1;VV_110521/885.png;3;1;44;-15;blocVVstim;listVVTrial;;;;Chronos;0;;0;1;1146317;200;;0;0;1;1;Chronos;0;0;1146517;0;1;200;1146717;0;;;-999999;0;0;0;;0;0;;;;;;;;;;;;;;;;;;;
EXP2.2_290421;122;1;Chronos;<ChronosDeviceInfo><FriendlyName>MyChronos</FriendlyName><DeviceIndex>1</DeviceIndex><SerialNumber>CHR-04301-1186</SerialNumber><EBNVersion>3.0.3.80</EBNVersion><FirmwareVersion>1.33</FirmwareVersion><APIVersion>1.33</APIVersion><USBHostControllerVersion>2.0</USBHostControllerVersion><USBConnectionRoute>USB#ROOT_HUB20#4&f63975&0#{f18a0e88-c30c-11d0-8815-00a0c906bed8} + USB#VID_8087&PID_0024#5&365d106a&0&1#{f18a0e88-c30c-11d0-8815-00a0c906bed8}(1) + VID_2266&PID_0007(2)</USBConnectionRoute></ChronosDeviceInfo>;"<?xml version=""1.0""?>\n<Clock xmlns:dt=""urn:schemas-microsoft-com:datatypes""><Description dt:dt=""string"">E-Prime Primary Realtime Clock</Description><StartTime><Timestamp dt:dt=""int"">0</Timestamp><DateUtc dt:dt=""string"">2013-09-14T07:42:29Z</DateUtc></StartTime><FrequencyChanges><FrequencyChange><Frequency dt:dt=""r8"">3312832</Frequency><Timestamp dt:dt=""r8"">594750072215</Timestamp><Current dt:dt=""r8"">0</Current><DateUtc dt:dt=""string"">2013-09-14T07:42:29Z</DateUtc></FrequencyChange></FrequencyChanges></Clock>\n";EXP2.2_290421-122-1;59.951;1.0.0.368;1;Chronos;2045189154;Full;3.0.3.80;3.0.3.80;09-14-2013;14/09/2013 07:42;09:42:29;3.0.3.82;2;Chronos;;2;1;2;TESTVV;Generalbloc;;;;pretest;Chronos;45;1;VV_110521/875.png;1;1;45;-25;blocVVstim;listVVTrial;;;;Chronos;0;;0;1;1148252;200;;0;0;1;1;Chronos;0;0;1148452;0;1;111;1148563;0;;;-999999;0;0;0;;0;0;;;;;;;;;;;;;;;;;;;
EXP2.2_290421;122;1;Chronos;<ChronosDeviceInfo><FriendlyName>MyChronos</FriendlyName><DeviceIndex>1</DeviceIndex><SerialNumber>CHR-04301-1186</SerialNumber><EBNVersion>3.0.3.80</EBNVersion><FirmwareVersion>1.33</FirmwareVersion><APIVersion>1.33</APIVersion><USBHostControllerVersion>2.0</USBHostControllerVersion><USBConnectionRoute>USB#ROOT_HUB20#4&f63975&0#{f18a0e88-c30c-11d0-8815-00a0c906bed8} + USB#VID_8087&PID_0024#5&365d106a&0&1#{f18a0e88-c30c-11d0-8815-00a0c906bed8}(1) + VID_2266&PID_0007(2)</USBConnectionRoute></ChronosDeviceInfo>;"<?xml version=""1.0""?>\n<Clock xmlns:dt=""urn:schemas-microsoft-com:datatypes""><Description dt:dt=""string"">E-Prime Primary Realtime Clock</Description><StartTime><Timestamp dt:dt=""int"">0</Timestamp><DateUtc dt:dt=""string"">2013-09-14T07:42:29Z</DateUtc></StartTime><FrequencyChanges><FrequencyChange><Frequency dt:dt=""r8"">3312832</Frequency><Timestamp dt:dt=""r8"">594750072215</Timestamp><Current dt:dt=""r8"">0</Current><DateUtc dt:dt=""string"">2013-09-14T07:42:29Z</DateUtc></FrequencyChange></FrequencyChanges></Clock>\n";EXP2.2_290421-122-1;59.951;1.0.0.368;1;Chronos;2045189154;Full;3.0.3.80;3.0.3.80;09-14-2013;14/09/2013 07:42;09:42:29;3.0.3.82;2;Chronos;;2;1;2;TESTVV;Generalbloc;;;;pretest;Chronos;46;1;VV_110521/885.png;3;1;46;-15;blocVVstim;listVVTrial;;;;Chronos;0;;0;1;1150087;200;;0;0;1;1;Chronos;0;0;1150287;300;1;4408;1154695;1;1;Chronos;0;0;1150587;0;1;4108;1154695;;;;;;;;;;;;;;;;;;;
EXP2.2_290421;122;1;Chronos;<ChronosDeviceInfo><FriendlyName>MyChronos</FriendlyName><DeviceIndex>1</DeviceIndex><SerialNumber>CHR-04301-1186</SerialNumber><EBNVersion>3.0.3.80</EBNVersion><FirmwareVersion>1.33</FirmwareVersion><APIVersion>1.33</APIVersion><USBHostControllerVersion>2.0</USBHostControllerVersion><USBConnectionRoute>USB#ROOT_HUB20#4&f63975&0#{f18a0e88-c30c-11d0-8815-00a0c906bed8} + USB#VID_8087&PID_0024#5&365d106a&0&1#{f18a0e88-c30c-11d0-8815-00a0c906bed8}(1) + VID_2266&PID_0007(2)</USBConnectionRoute></ChronosDeviceInfo>;"<?xml version=""1.0""?>\n<Clock xmlns:dt=""urn:schemas-microsoft-com:datatypes""><Description dt:dt=""string"">E-Prime Primary Realtime Clock</Description><StartTime><Timestamp dt:dt=""int"">0</Timestamp><DateUtc dt:dt=""string"">2013-09-14T07:42:29Z</DateUtc></StartTime><FrequencyChanges><FrequencyChange><Frequency dt:dt=""r8"">3312832</Frequency><Timestamp dt:dt=""r8"">594750072215</Timestamp><Current dt:dt=""r8"">0</Current><DateUtc dt:dt=""string"">2013-09-14T07:42:29Z</DateUtc></FrequencyChange></FrequencyChanges></Clock>\n";EXP2.2_290421-122-1;59.951;1.0.0.368;1;Chronos;2045189154;Full;3.0.3.80;3.0.3.80;09-14-2013;14/09/2013 07:42;09:42:29;3.0.3.82;2;Chronos;;2;1;2;TESTVV;Generalbloc;;;;pretest;Chronos;47;15;VV_110521/900.png;6;1;47;0;blocVVstim;listVVTrial;;;;Chronos;0;;0;1;1156225;200;;0;0;0;15;Chronos;1;0;1156425;301;5;981;1157406;0;15;Chronos;0;1;1156726;0;5;680;1157406;;;;;;;;;;;;;;;;;;;
EXP2.2_290421;122;1;Chronos;<ChronosDeviceInfo><FriendlyName>MyChronos</FriendlyName><DeviceIndex>1</DeviceIndex><SerialNumber>CHR-04301-1186</SerialNumber><EBNVersion>3.0.3.80</EBNVersion><FirmwareVersion>1.33</FirmwareVersion><APIVersion>1.33</APIVersion><USBHostControllerVersion>2.0</USBHostControllerVersion><USBConnectionRoute>USB#ROOT_HUB20#4&f63975&0#{f18a0e88-c30c-11d0-8815-00a0c906bed8} + USB#VID_8087&PID_0024#5&365d106a&0&1#{f18a0e88-c30c-11d0-8815-00a0c906bed8}(1) + VID_2266&PID_0007(2)</USBConnectionRoute></ChronosDeviceInfo>;"<?xml version=""1.0""?>\n<Clock xmlns:dt=""urn:schemas-microsoft-com:datatypes""><Description dt:dt=""string"">E-Prime Primary Realtime Clock</Description><StartTime><Timestamp dt:dt=""int"">0</Timestamp><DateUtc dt:dt=""string"">2013-09-14T07:42:29Z</DateUtc></StartTime><FrequencyChanges><FrequencyChange><Frequency dt:dt=""r8"">3312832</Frequency><Timestamp dt:dt=""r8"">594750072215</Timestamp><Current dt:dt=""r8"">0</Current><DateUtc dt:dt=""string"">2013-09-14T07:42:29Z</DateUtc></FrequencyChange></FrequencyChanges></Clock>\n";EXP2.2_290421-122-1;59.951;1.0.0.368;1;Chronos;2045189154;Full;3.0.3.80;3.0.3.80;09-14-2013;14/09/2013 07:42;09:42:29;3.0.3.82;2;Chronos;;2;1;2;TESTVV;Generalbloc;;;;pretest;Chronos;48;1;VV_110521/880.png;2;1;48;-20;blocVVstim;listVVTrial;;;;Chronos;0;;0;2;1158928;200;;0;0;0;1;Chronos;0;0;1159128;300;5;726;1159854;0;1;Chronos;0;0;1159428;0;5;426;1159854;;;;;;;;;;;;;;;;;;;
EXP2.2_290421;122;1;Chronos;<ChronosDeviceInfo><FriendlyName>MyChronos</FriendlyName><DeviceIndex>1</DeviceIndex><SerialNumber>CHR-04301-1186</SerialNumber><EBNVersion>3.0.3.80</EBNVersion><FirmwareVersion>1.33</FirmwareVersion><APIVersion>1.33</APIVersion><USBHostControllerVersion>2.0</USBHostControllerVersion><USBConnectionRoute>USB#ROOT_HUB20#4&f63975&0#{f18a0e88-c30c-11d0-8815-00a0c906bed8} + USB#VID_8087&PID_0024#5&365d106a&0&1#{f18a0e88-c30c-11d0-8815-00a0c906bed8}(1) + VID_2266&PID_0007(2)</USBConnectionRoute></ChronosDeviceInfo>;"<?xml version=""1.0""?>\n<Clock xmlns:dt=""urn:schemas-microsoft-com:datatypes""><Description dt:dt=""string"">E-Prime Primary Realtime Clock</Description><StartTime><Timestamp dt:dt=""int"">0</Timestamp><DateUtc dt:dt=""string"">2013-09-14T07:42:29Z</DateUtc></StartTime><FrequencyChanges><FrequencyChange><Frequency dt:dt=""r8"">3312832</Frequency><Timestamp dt:dt=""r8"">594750072215</Timestamp><Current dt:dt=""r8"">0</Current><DateUtc dt:dt=""string"">2013-09-14T07:42:29Z</DateUtc></FrequencyChange></FrequencyChanges></Clock>\n";EXP2.2_290421-122-1;59.951;1.0.0.368;1;Chronos;2045189154;Full;3.0.3.80;3.0.3.80;09-14-2013;14/09/2013 07:42;09:42:29;3.0.3.82;2;Chronos;;2;1;2;TESTVV;Generalbloc;;;;pretest;Chronos;49;5;VV_110521/910.png;8;1;49;10;blocVVstim;listVVTrial;;;;Chronos;0;;0;2;1161380;200;;0;0;1;5;Chronos;0;0;1161580;300;5;744;1162324;1;5;Chronos;0;0;1161880;0;5;444;1162324;;;;;;;;;;;;;;;;;;;
EXP2.2_290421;122;1;Chronos;<ChronosDeviceInfo><FriendlyName>MyChronos</FriendlyName><DeviceIndex>1</DeviceIndex><SerialNumber>CHR-04301-1186</SerialNumber><EBNVersion>3.0.3.80</EBNVersion><FirmwareVersion>1.33</FirmwareVersion><APIVersion>1.33</APIVersion><USBHostControllerVersion>2.0</USBHostControllerVersion><USBConnectionRoute>USB#ROOT_HUB20#4&f63975&0#{f18a0e88-c30c-11d0-8815-00a0c906bed8} + USB#VID_8087&PID_0024#5&365d106a&0&1#{f18a0e88-c30c-11d0-8815-00a0c906bed8}(1) + VID_2266&PID_0007(2)</USBConnectionRoute></ChronosDeviceInfo>;"<?xml version=""1.0""?>\n<Clock xmlns:dt=""urn:schemas-microsoft-com:datatypes""><Description dt:dt=""string"">E-Prime Primary Realtime Clock</Description><StartTime><Timestamp dt:dt=""int"">0</Timestamp><DateUtc dt:dt=""string"">2013-09-14T07:42:29Z</DateUtc></StartTime><FrequencyChanges><FrequencyChange><Frequency dt:dt=""r8"">3312832</Frequency><Timestamp dt:dt=""r8"">594750072215</Timestamp><Current dt:dt=""r8"">0</Current><DateUtc dt:dt=""string"">2013-09-14T07:42:29Z</DateUtc></FrequencyChange></FrequencyChanges></Clock>\n";EXP2.2_290421-122-1;59.951;1.0.0.368;1;Chronos;2045189154;Full;3.0.3.80;3.0.3.80;09-14-2013;14/09/2013 07:42;09:42:29;3.0.3.82;2;Chronos;;2;1;2;TESTVV;Generalbloc;;;;pretest;Chronos;50;1;VV_110521/895.png;5;1;50;-5;blocVVstim;listVVTrial;;;;Chronos;0;;0;1;1163848;200;;0;0;0;1;Chronos;1;0;1164048;301;5;432;1164480;0;1;Chronos;0;1;1164349;0;5;131;1164480;;;;;;;;;;;;;;;;;;;
EXP2.2_290421;122;1;Chronos;<ChronosDeviceInfo><FriendlyName>MyChronos</FriendlyName><DeviceIndex>1</DeviceIndex><SerialNumber>CHR-04301-1186</SerialNumber><EBNVersion>3.0.3.80</EBNVersion><FirmwareVersion>1.33</FirmwareVersion><APIVersion>1.33</APIVersion><USBHostControllerVersion>2.0</USBHostControllerVersion><USBConnectionRoute>USB#ROOT_HUB20#4&f63975&0#{f18a0e88-c30c-11d0-8815-00a0c906bed8} + USB#VID_8087&PID_0024#5&365d106a&0&1#{f18a0e88-c30c-11d0-8815-00a0c906bed8}(1) + VID_2266&PID_0007(2)</USBConnectionRoute></ChronosDeviceInfo>;"<?xml version=""1.0""?>\n<Clock xmlns:dt=""urn:schemas-microsoft-com:datatypes""><Description dt:dt=""string"">E-Prime Primary Realtime Clock</Description><StartTime><Timestamp dt:dt=""int"">0</Timestamp><DateUtc dt:dt=""string"">2013-09-14T07:42:29Z</DateUtc></StartTime><FrequencyChanges><FrequencyChange><Frequency dt:dt=""r8"">3312832</Frequency><Timestamp dt:dt=""r8"">594750072215</Timestamp><Current dt:dt=""r8"">0</Current><DateUtc dt:dt=""string"">2013-09-14T07:42:29Z</DateUtc></FrequencyChange></FrequencyChanges></Clock>\n";EXP2.2_290421-122-1;59.951;1.0.0.368;1;Chronos;2045189154;Full;3.0.3.80;3.0.3.80;09-14-2013;14/09/2013 07:42;09:42:29;3.0.3.82;2;Chronos;;2;1;2;TESTVV;Generalbloc;;;;pretest;Chronos;51;15;VV_110521/900.png;6;1;51;0;blocVVstim;listVVTrial;;;;Chronos;0;;0;1;1166017;200;;0;0;0;15;Chronos;0;0;1166217;300;5;435;1166652;0;15;Chronos;0;0;1166517;0;5;135;1166652;;;;;;;;;;;;;;;;;;;
EXP2.2_290421;122;1;Chronos;<ChronosDeviceInfo><FriendlyName>MyChronos</FriendlyName><DeviceIndex>1</DeviceIndex><SerialNumber>CHR-04301-1186</SerialNumber><EBNVersion>3.0.3.80</EBNVersion><FirmwareVersion>1.33</FirmwareVersion><APIVersion>1.33</APIVersion><USBHostControllerVersion>2.0</USBHostControllerVersion><USBConnectionRoute>USB#ROOT_HUB20#4&f63975&0#{f18a0e88-c30c-11d0-8815-00a0c906bed8} + USB#VID_8087&PID_0024#5&365d106a&0&1#{f18a0e88-c30c-11d0-8815-00a0c906bed8}(1) + VID_2266&PID_0007(2)</USBConnectionRoute></ChronosDeviceInfo>;"<?xml version=""1.0""?>\n<Clock xmlns:dt=""urn:schemas-microsoft-com:datatypes""><Description dt:dt=""string"">E-Prime Primary Realtime Clock</Description><StartTime><Timestamp dt:dt=""int"">0</Timestamp><DateUtc dt:dt=""string"">2013-09-14T07:42:29Z</DateUtc></StartTime><FrequencyChanges><FrequencyChange><Frequency dt:dt=""r8"">3312832</Frequency><Timestamp dt:dt=""r8"">594750072215</Timestamp><Current dt:dt=""r8"">0</Current><DateUtc dt:dt=""string"">2013-09-14T07:42:29Z</DateUtc></FrequencyChange></FrequencyChanges></Clock>\n";EXP2.2_290421-122-1;59.951;1.0.0.368;1;Chronos;2045189154;Full;3.0.3.80;3.0.3.80;09-14-2013;14/09/2013 07:42;09:42:29;3.0.3.82;2;Chronos;;2;1;2;TESTVV;Generalbloc;;;;pretest;Chronos;52;1;VV_110521/890.png;4;1;52;-10;blocVVstim;listVVTrial;;;;Chronos;0;;0;1;1168185;200;;0;0;1;1;Chronos;0;0;1168385;301;1;1015;1169400;1;1;Chronos;0;1;1168686;0;1;714;1169400;;;;;;;;;;;;;;;;;;;
EXP2.2_290421;122;1;Chronos;<ChronosDeviceInfo><FriendlyName>MyChronos</FriendlyName><DeviceIndex>1</DeviceIndex><SerialNumber>CHR-04301-1186</SerialNumber><EBNVersion>3.0.3.80</EBNVersion><FirmwareVersion>1.33</FirmwareVersion><APIVersion>1.33</APIVersion><USBHostControllerVersion>2.0</USBHostControllerVersion><USBConnectionRoute>USB#ROOT_HUB20#4&f63975&0#{f18a0e88-c30c-11d0-8815-00a0c906bed8} + USB#VID_8087&PID_0024#5&365d106a&0&1#{f18a0e88-c30c-11d0-8815-00a0c906bed8}(1) + VID_2266&PID_0007(2)</USBConnectionRoute></ChronosDeviceInfo>;"<?xml version=""1.0""?>\n<Clock xmlns:dt=""urn:schemas-microsoft-com:datatypes""><Description dt:dt=""string"">E-Prime Primary Realtime Clock</Description><StartTime><Timestamp dt:dt=""int"">0</Timestamp><DateUtc dt:dt=""string"">2013-09-14T07:42:29Z</DateUtc></StartTime><FrequencyChanges><FrequencyChange><Frequency dt:dt=""r8"">3312832</Frequency><Timestamp dt:dt=""r8"">594750072215</Timestamp><Current dt:dt=""r8"">0</Current><DateUtc dt:dt=""string"">2013-09-14T07:42:29Z</DateUtc></FrequencyChange></FrequencyChanges></Clock>\n";EXP2.2_290421-122-1;59.951;1.0.0.368;1;Chronos;2045189154;Full;3.0.3.80;3.0.3.80;09-14-2013;14/09/2013 07:42;09:42:29;3.0.3.82;2;Chronos;;2;1;2;TESTVV;Generalbloc;;;;pretest;Chronos;53;5;VV_110521/920.png;10;1;53;20;blocVVstim;listVVTrial;;;;Chronos;0;;0;2;1170938;200;;0;0;1;5;Chronos;0;0;1171138;300;5;412;1171550;1;5;Chronos;0;0;1171438;0;5;112;1171550;;;;;;;;;;;;;;;;;;;
EXP2.2_290421;122;1;Chronos;<ChronosDeviceInfo><FriendlyName>MyChronos</FriendlyName><DeviceIndex>1</DeviceIndex><SerialNumber>CHR-04301-1186</SerialNumber><EBNVersion>3.0.3.80</EBNVersion><FirmwareVersion>1.33</FirmwareVersion><APIVersion>1.33</APIVersion><USBHostControllerVersion>2.0</USBHostControllerVersion><USBConnectionRoute>USB#ROOT_HUB20#4&f63975&0#{f18a0e88-c30c-11d0-8815-00a0c906bed8} + USB#VID_8087&PID_0024#5&365d106a&0&1#{f18a0e88-c30c-11d0-8815-00a0c906bed8}(1) + VID_2266&PID_0007(2)</USBConnectionRoute></ChronosDeviceInfo>;"<?xml version=""1.0""?>\n<Clock xmlns:dt=""urn:schemas-microsoft-com:datatypes""><Description dt:dt=""string"">E-Prime Primary Realtime Clock</Description><StartTime><Timestamp dt:dt=""int"">0</Timestamp><DateUtc dt:dt=""string"">2013-09-14T07:42:29Z</DateUtc></StartTime><FrequencyChanges><FrequencyChange><Frequency dt:dt=""r8"">3312832</Frequency><Timestamp dt:dt=""r8"">594750072215</Timestamp><Current dt:dt=""r8"">0</Current><DateUtc dt:dt=""string"">2013-09-14T07:42:29Z</DateUtc></FrequencyChange></FrequencyChanges></Clock>\n";EXP2.2_290421-122-1;59.951;1.0.0.368;1;Chronos;2045189154;Full;3.0.3.80;3.0.3.80;09-14-2013;14/09/2013 07:42;09:42:29;3.0.3.82;2;Chronos;;2;1;2;TESTVV;Generalbloc;;;;pretest;Chronos;54;1;VV_110521/895.png;5;1;54;-5;blocVVstim;listVVTrial;;;;Chronos;0;;0;1;1173089;200;;0;0;0;1;Chronos;1;0;1173289;301;5;392;1173681;0;1;Chronos;0;1;1173590;0;5;91;1173681;;;;;;;;;;;;;;;;;;;
EXP2.2_290421;122;1;Chronos;<ChronosDeviceInfo><FriendlyName>MyChronos</FriendlyName><DeviceIndex>1</DeviceIndex><SerialNumber>CHR-04301-1186</SerialNumber><EBNVersion>3.0.3.80</EBNVersion><FirmwareVersion>1.33</FirmwareVersion><APIVersion>1.33</APIVersion><USBHostControllerVersion>2.0</USBHostControllerVersion><USBConnectionRoute>USB#ROOT_HUB20#4&f63975&0#{f18a0e88-c30c-11d0-8815-00a0c906bed8} + USB#VID_8087&PID_0024#5&365d106a&0&1#{f18a0e88-c30c-11d0-8815-00a0c906bed8}(1) + VID_2266&PID_0007(2)</USBConnectionRoute></ChronosDeviceInfo>;"<?xml version=""1.0""?>\n<Clock xmlns:dt=""urn:schemas-microsoft-com:datatypes""><Description dt:dt=""string"">E-Prime Primary Realtime Clock</Description><StartTime><Timestamp dt:dt=""int"">0</Timestamp><DateUtc dt:dt=""string"">2013-09-14T07:42:29Z</DateUtc></StartTime><FrequencyChanges><FrequencyChange><Frequency dt:dt=""r8"">3312832</Frequency><Timestamp dt:dt=""r8"">594750072215</Timestamp><Current dt:dt=""r8"">0</Current><DateUtc dt:dt=""string"">2013-09-14T07:42:29Z</DateUtc></FrequencyChange></FrequencyChanges></Clock>\n";EXP2.2_290421-122-1;59.951;1.0.0.368;1;Chronos;2045189154;Full;3.0.3.80;3.0.3.80;09-14-2013;14/09/2013 07:42;09:42:29;3.0.3.82;2;Chronos;;2;1;2;TESTVV;Generalbloc;;;;pretest;Chronos;55;1;VV_110521/895.png;5;1;55;-5;blocVVstim;listVVTrial;;;;Chronos;0;;0;2;1175208;200;;0;0;0;1;Chronos;0;0;1175408;0;5;198;1175606;0;;;-999999;0;0;0;;0;0;;;;;;;;;;;;;;;;;;;
