ExperimentName;Subject;Session;calibrage.DEVICE[Session];Chronos.BoxInfo;Clock.Information;DataFile.Basename;Display.RefreshRate;ExperimentVersion;Group;Hello.DEVICE;RandomSeed;RuntimeCapabilities;RuntimeVersion;RuntimeVersionExpected;SessionDate;SessionStartDateTimeUtc;SessionTime;StudioVersion;Block;calibrage.DEVICE[Block];EndTraining.DEVICE;Generalbloc;Generalbloc.Cycle;Generalbloc.Sample;Procedure[Block];Running[Block];TextDisplay1.DEVICE;TextDisplay2.DEVICE;TextTraining.DEVICE;time;VVInst.DEVICE[Block];Trial;correct;image;listVVTrial;listVVTrial.Cycle;listVVTrial.Sample;offset;Procedure[Trial];Running[Trial];SpatialTaskTraining;SpatialTaskTraining.Cycle;SpatialTaskTraining.Sample;VVInst.DEVICE[Trial];vvstimnoresp.ACC;vvstimnoresp.CRESP;vvstimnoresp.DurationError;vvstimnoresp.OnsetDelay;vvstimnoresp.OnsetTime;vvstimnoresp.OnsetToOnsetTime;vvstimnoresp.RESP;vvstimnoresp.RT;vvstimnoresp.RTTime;vvstimresp1.ACC;vvstimresp1.CRESP;vvstimresp1.DEVICE;vvstimresp1.DurationError;vvstimresp1.OnsetDelay;vvstimresp1.OnsetTime;vvstimresp1.OnsetToOnsetTime;vvstimresp1.RESP;vvstimresp1.RT;vvstimresp1.RTTime;vvstimresp2.ACC;vvstimresp2.CRESP;vvstimresp2.DEVICE;vvstimresp2.DurationError;vvstimresp2.OnsetDelay;vvstimresp2.OnsetTime;vvstimresp2.OnsetToOnsetTime;vvstimresp2.RESP;vvstimresp2.RT;vvstimresp2.RTTime;SubTrial;LISTVVRANDOM1;LISTVVRANDOM1.Cycle;LISTVVRANDOM1.Sample;LISTVVRANDOM2;Procedure[SubTrial];Running[SubTrial];VVR;VVRANDOM;VVRANDOMRESP.ACC;VVRANDOMRESP.CRESP;VVRANDOMRESP.DEVICE;VVRANDOMRESP.DurationError;VVRANDOMRESP.OnsetDelay;VVRANDOMRESP.OnsetTime;VVRANDOMRESP.OnsetToOnsetTime;VVRANDOMRESP.RESP;VVRANDOMRESP.RT;VVRANDOMRESP.RTTime
EXP2.2_290421;1015;1;Chronos;<ChronosDeviceInfo><FriendlyName>MyChronos</FriendlyName><DeviceIndex>1</DeviceIndex><SerialNumber>CHR-04301-1186</SerialNumber><EBNVersion>3.0.3.80</EBNVersion><FirmwareVersion>1.33</FirmwareVersion><APIVersion>1.33</APIVersion><USBHostControllerVersion>2.0</USBHostControllerVersion><USBConnectionRoute>USB#ROOT_HUB20#4&9bd2e8a&0#{f18a0e88-c30c-11d0-8815-00a0c906bed8} + USB#VID_8087&PID_0024#5&3026c139&0&1#{f18a0e88-c30c-11d0-8815-00a0c906bed8}(1) + VID_2266&PID_0007(7)</USBConnectionRoute></ChronosDeviceInfo>;"<?xml version=""1.0""?>\n<Clock xmlns:dt=""urn:schemas-microsoft-com:datatypes""><Description dt:dt=""string"">E-Prime Primary Realtime Clock</Description><StartTime><Timestamp dt:dt=""int"">0</Timestamp><DateUtc dt:dt=""string"">2021-05-04T12:54:39Z</DateUtc></StartTime><FrequencyChanges><FrequencyChange><Frequency dt:dt=""r8"">2435576</Frequency><Timestamp dt:dt=""r8"">57695471460</Timestamp><Current dt:dt=""r8"">0</Current><DateUtc dt:dt=""string"">2021-05-04T12:54:39Z</DateUtc></FrequencyChange></FrequencyChanges></Clock>\n";EXP2.2_290421-1015-1;60.024;1.0.0.367;1;Chronos;1861376075;Full;3.0.3.80;3.0.3.80;05/04/2021;04/05/2021 12:54;14:54:39;3.0.3.82;1;Chronos;Chronos;1;1;1;Training;Generalbloc;;;Chronos;pretest;;1;;;;;;;TRAININGVV;SpatialTaskTraining;1;1;1;Chronos;;;;;;;;;;;;;;;;;;;;;;;;;;;;;;1;1;1;1;1;blocVVstimTraining;LISTVVRANDOM1;VV_290421/875.png;VV_290421/880.png;0;;Chronos;-999999;0;463980;0;1;25621;489601
EXP2.2_290421;1015;1;Chronos;<ChronosDeviceInfo><FriendlyName>MyChronos</FriendlyName><DeviceIndex>1</DeviceIndex><SerialNumber>CHR-04301-1186</SerialNumber><EBNVersion>3.0.3.80</EBNVersion><FirmwareVersion>1.33</FirmwareVersion><APIVersion>1.33</APIVersion><USBHostControllerVersion>2.0</USBHostControllerVersion><USBConnectionRoute>USB#ROOT_HUB20#4&9bd2e8a&0#{f18a0e88-c30c-11d0-8815-00a0c906bed8} + USB#VID_8087&PID_0024#5&3026c139&0&1#{f18a0e88-c30c-11d0-8815-00a0c906bed8}(1) + VID_2266&PID_0007(7)</USBConnectionRoute></ChronosDeviceInfo>;"<?xml version=""1.0""?>\n<Clock xmlns:dt=""urn:schemas-microsoft-com:datatypes""><Description dt:dt=""string"">E-Prime Primary Realtime Clock</Description><StartTime><Timestamp dt:dt=""int"">0</Timestamp><DateUtc dt:dt=""string"">2021-05-04T12:54:39Z</DateUtc></StartTime><FrequencyChanges><FrequencyChange><Frequency dt:dt=""r8"">2435576</Frequency><Timestamp dt:dt=""r8"">57695471460</Timestamp><Current dt:dt=""r8"">0</Current><DateUtc dt:dt=""string"">2021-05-04T12:54:39Z</DateUtc></FrequencyChange></FrequencyChanges></Clock>\n";EXP2.2_290421-1015-1;60.024;1.0.0.367;1;Chronos;1861376075;Full;3.0.3.80;3.0.3.80;05/04/2021;04/05/2021 12:54;14:54:39;3.0.3.82;1;Chronos;Chronos;1;1;1;Training;Generalbloc;;;Chronos;pretest;;1;;;;;;;TRAININGVV;SpatialTaskTraining;1;1;1;Chronos;;;;;;;;;;;;;;;;;;;;;;;;;;;;;;2;1;1;2;3;blocVVstimTraining;LISTVVRANDOM1;VV_290421/885.png;VV_290421/890.png;0;;Chronos;-999999;0;491619;0;1;1837;493456
EXP2.2_290421;1015;1;Chronos;<ChronosDeviceInfo><FriendlyName>MyChronos</FriendlyName><DeviceIndex>1</DeviceIndex><SerialNumber>CHR-04301-1186</SerialNumber><EBNVersion>3.0.3.80</EBNVersion><FirmwareVersion>1.33</FirmwareVersion><APIVersion>1.33</APIVersion><USBHostControllerVersion>2.0</USBHostControllerVersion><USBConnectionRoute>USB#ROOT_HUB20#4&9bd2e8a&0#{f18a0e88-c30c-11d0-8815-00a0c906bed8} + USB#VID_8087&PID_0024#5&3026c139&0&1#{f18a0e88-c30c-11d0-8815-00a0c906bed8}(1) + VID_2266&PID_0007(7)</USBConnectionRoute></ChronosDeviceInfo>;"<?xml version=""1.0""?>\n<Clock xmlns:dt=""urn:schemas-microsoft-com:datatypes""><Description dt:dt=""string"">E-Prime Primary Realtime Clock</Description><StartTime><Timestamp dt:dt=""int"">0</Timestamp><DateUtc dt:dt=""string"">2021-05-04T12:54:39Z</DateUtc></StartTime><FrequencyChanges><FrequencyChange><Frequency dt:dt=""r8"">2435576</Frequency><Timestamp dt:dt=""r8"">57695471460</Timestamp><Current dt:dt=""r8"">0</Current><DateUtc dt:dt=""string"">2021-05-04T12:54:39Z</DateUtc></FrequencyChange></FrequencyChanges></Clock>\n";EXP2.2_290421-1015-1;60.024;1.0.0.367;1;Chronos;1861376075;Full;3.0.3.80;3.0.3.80;05/04/2021;04/05/2021 12:54;14:54:39;3.0.3.82;1;Chronos;Chronos;1;1;1;Training;Generalbloc;;;Chronos;pretest;;1;;;;;;;TRAININGVV;SpatialTaskTraining;1;1;1;Chronos;;;;;;;;;;;;;;;;;;;;;;;;;;;;;;3;1;1;3;5;blocVVstimTraining;LISTVVRANDOM1;VV_290421/895.png;VV_290421/900.png;0;;Chronos;-999999;0;495484;0;5;3435;498919
EXP2.2_290421;1015;1;Chronos;<ChronosDeviceInfo><FriendlyName>MyChronos</FriendlyName><DeviceIndex>1</DeviceIndex><SerialNumber>CHR-04301-1186</SerialNumber><EBNVersion>3.0.3.80</EBNVersion><FirmwareVersion>1.33</FirmwareVersion><APIVersion>1.33</APIVersion><USBHostControllerVersion>2.0</USBHostControllerVersion><USBConnectionRoute>USB#ROOT_HUB20#4&9bd2e8a&0#{f18a0e88-c30c-11d0-8815-00a0c906bed8} + USB#VID_8087&PID_0024#5&3026c139&0&1#{f18a0e88-c30c-11d0-8815-00a0c906bed8}(1) + VID_2266&PID_0007(7)</USBConnectionRoute></ChronosDeviceInfo>;"<?xml version=""1.0""?>\n<Clock xmlns:dt=""urn:schemas-microsoft-com:datatypes""><Description dt:dt=""string"">E-Prime Primary Realtime Clock</Description><StartTime><Timestamp dt:dt=""int"">0</Timestamp><DateUtc dt:dt=""string"">2021-05-04T12:54:39Z</DateUtc></StartTime><FrequencyChanges><FrequencyChange><Frequency dt:dt=""r8"">2435576</Frequency><Timestamp dt:dt=""r8"">57695471460</Timestamp><Current dt:dt=""r8"">0</Current><DateUtc dt:dt=""string"">2021-05-04T12:54:39Z</DateUtc></FrequencyChange></FrequencyChanges></Clock>\n";EXP2.2_290421-1015-1;60.024;1.0.0.367;1;Chronos;1861376075;Full;3.0.3.80;3.0.3.80;05/04/2021;04/05/2021 12:54;14:54:39;3.0.3.82;1;Chronos;Chronos;1;1;1;Training;Generalbloc;;;Chronos;pretest;;1;;;;;;;TRAININGVV;SpatialTaskTraining;1;1;1;Chronos;;;;;;;;;;;;;;;;;;;;;;;;;;;;;;4;1;1;4;7;blocVVstimTraining;LISTVVRANDOM1;VV_290421/905.png;VV_290421/910.png;0;;Chronos;-999999;0;500932;0;5;2726;503658
EXP2.2_290421;1015;1;Chronos;<ChronosDeviceInfo><FriendlyName>MyChronos</FriendlyName><DeviceIndex>1</DeviceIndex><SerialNumber>CHR-04301-1186</SerialNumber><EBNVersion>3.0.3.80</EBNVersion><FirmwareVersion>1.33</FirmwareVersion><APIVersion>1.33</APIVersion><USBHostControllerVersion>2.0</USBHostControllerVersion><USBConnectionRoute>USB#ROOT_HUB20#4&9bd2e8a&0#{f18a0e88-c30c-11d0-8815-00a0c906bed8} + USB#VID_8087&PID_0024#5&3026c139&0&1#{f18a0e88-c30c-11d0-8815-00a0c906bed8}(1) + VID_2266&PID_0007(7)</USBConnectionRoute></ChronosDeviceInfo>;"<?xml version=""1.0""?>\n<Clock xmlns:dt=""urn:schemas-microsoft-com:datatypes""><Description dt:dt=""string"">E-Prime Primary Realtime Clock</Description><StartTime><Timestamp dt:dt=""int"">0</Timestamp><DateUtc dt:dt=""string"">2021-05-04T12:54:39Z</DateUtc></StartTime><FrequencyChanges><FrequencyChange><Frequency dt:dt=""r8"">2435576</Frequency><Timestamp dt:dt=""r8"">57695471460</Timestamp><Current dt:dt=""r8"">0</Current><DateUtc dt:dt=""string"">2021-05-04T12:54:39Z</DateUtc></FrequencyChange></FrequencyChanges></Clock>\n";EXP2.2_290421-1015-1;60.024;1.0.0.367;1;Chronos;1861376075;Full;3.0.3.80;3.0.3.80;05/04/2021;04/05/2021 12:54;14:54:39;3.0.3.82;1;Chronos;Chronos;1;1;1;Training;Generalbloc;;;Chronos;pretest;;1;;;;;;;TRAININGVV;SpatialTaskTraining;1;1;1;Chronos;;;;;;;;;;;;;;;;;;;;;;;;;;;;;;5;1;1;5;9;blocVVstimTraining;LISTVVRANDOM1;VV_290421/915.png;VV_290421/920.png;0;;Chronos;-999999;0;505680;0;5;2549;508229
EXP2.2_290421;1015;1;Chronos;<ChronosDeviceInfo><FriendlyName>MyChronos</FriendlyName><DeviceIndex>1</DeviceIndex><SerialNumber>CHR-04301-1186</SerialNumber><EBNVersion>3.0.3.80</EBNVersion><FirmwareVersion>1.33</FirmwareVersion><APIVersion>1.33</APIVersion><USBHostControllerVersion>2.0</USBHostControllerVersion><USBConnectionRoute>USB#ROOT_HUB20#4&9bd2e8a&0#{f18a0e88-c30c-11d0-8815-00a0c906bed8} + USB#VID_8087&PID_0024#5&3026c139&0&1#{f18a0e88-c30c-11d0-8815-00a0c906bed8}(1) + VID_2266&PID_0007(7)</USBConnectionRoute></ChronosDeviceInfo>;"<?xml version=""1.0""?>\n<Clock xmlns:dt=""urn:schemas-microsoft-com:datatypes""><Description dt:dt=""string"">E-Prime Primary Realtime Clock</Description><StartTime><Timestamp dt:dt=""int"">0</Timestamp><DateUtc dt:dt=""string"">2021-05-04T12:54:39Z</DateUtc></StartTime><FrequencyChanges><FrequencyChange><Frequency dt:dt=""r8"">2435576</Frequency><Timestamp dt:dt=""r8"">57695471460</Timestamp><Current dt:dt=""r8"">0</Current><DateUtc dt:dt=""string"">2021-05-04T12:54:39Z</DateUtc></FrequencyChange></FrequencyChanges></Clock>\n";EXP2.2_290421-1015-1;60.024;1.0.0.367;1;Chronos;1861376075;Full;3.0.3.80;3.0.3.80;05/04/2021;04/05/2021 12:54;14:54:39;3.0.3.82;1;Chronos;Chronos;1;1;1;Training;Generalbloc;;;Chronos;pretest;;1;;;;;;;TRAININGVV;SpatialTaskTraining;1;1;1;Chronos;;;;;;;;;;;;;;;;;;;;;;;;;;;;;;6;1;1;6;11;blocVVstimTraining;LISTVVRANDOM1;VV_290421/925.png;VV_290421/875.png;0;;Chronos;-999999;0;510245;0;1;819;511064
EXP2.2_290421;1015;1;Chronos;<ChronosDeviceInfo><FriendlyName>MyChronos</FriendlyName><DeviceIndex>1</DeviceIndex><SerialNumber>CHR-04301-1186</SerialNumber><EBNVersion>3.0.3.80</EBNVersion><FirmwareVersion>1.33</FirmwareVersion><APIVersion>1.33</APIVersion><USBHostControllerVersion>2.0</USBHostControllerVersion><USBConnectionRoute>USB#ROOT_HUB20#4&9bd2e8a&0#{f18a0e88-c30c-11d0-8815-00a0c906bed8} + USB#VID_8087&PID_0024#5&3026c139&0&1#{f18a0e88-c30c-11d0-8815-00a0c906bed8}(1) + VID_2266&PID_0007(7)</USBConnectionRoute></ChronosDeviceInfo>;"<?xml version=""1.0""?>\n<Clock xmlns:dt=""urn:schemas-microsoft-com:datatypes""><Description dt:dt=""string"">E-Prime Primary Realtime Clock</Description><StartTime><Timestamp dt:dt=""int"">0</Timestamp><DateUtc dt:dt=""string"">2021-05-04T12:54:39Z</DateUtc></StartTime><FrequencyChanges><FrequencyChange><Frequency dt:dt=""r8"">2435576</Frequency><Timestamp dt:dt=""r8"">57695471460</Timestamp><Current dt:dt=""r8"">0</Current><DateUtc dt:dt=""string"">2021-05-04T12:54:39Z</DateUtc></FrequencyChange></FrequencyChanges></Clock>\n";EXP2.2_290421-1015-1;60.024;1.0.0.367;1;Chronos;1861376075;Full;3.0.3.80;3.0.3.80;05/04/2021;04/05/2021 12:54;14:54:39;3.0.3.82;1;Chronos;Chronos;1;1;1;Training;Generalbloc;;;Chronos;pretest;;1;;;;;;;TRAININGVV;SpatialTaskTraining;1;1;1;Chronos;;;;;;;;;;;;;;;;;;;;;;;;;;;;;;7;1;1;7;2;blocVVstimTraining;LISTVVRANDOM1;VV_290421/880.png;VV_290421/885.png;0;;Chronos;-999999;0;513077;0;1;3105;516182
EXP2.2_290421;1015;1;Chronos;<ChronosDeviceInfo><FriendlyName>MyChronos</FriendlyName><DeviceIndex>1</DeviceIndex><SerialNumber>CHR-04301-1186</SerialNumber><EBNVersion>3.0.3.80</EBNVersion><FirmwareVersion>1.33</FirmwareVersion><APIVersion>1.33</APIVersion><USBHostControllerVersion>2.0</USBHostControllerVersion><USBConnectionRoute>USB#ROOT_HUB20#4&9bd2e8a&0#{f18a0e88-c30c-11d0-8815-00a0c906bed8} + USB#VID_8087&PID_0024#5&3026c139&0&1#{f18a0e88-c30c-11d0-8815-00a0c906bed8}(1) + VID_2266&PID_0007(7)</USBConnectionRoute></ChronosDeviceInfo>;"<?xml version=""1.0""?>\n<Clock xmlns:dt=""urn:schemas-microsoft-com:datatypes""><Description dt:dt=""string"">E-Prime Primary Realtime Clock</Description><StartTime><Timestamp dt:dt=""int"">0</Timestamp><DateUtc dt:dt=""string"">2021-05-04T12:54:39Z</DateUtc></StartTime><FrequencyChanges><FrequencyChange><Frequency dt:dt=""r8"">2435576</Frequency><Timestamp dt:dt=""r8"">57695471460</Timestamp><Current dt:dt=""r8"">0</Current><DateUtc dt:dt=""string"">2021-05-04T12:54:39Z</DateUtc></FrequencyChange></FrequencyChanges></Clock>\n";EXP2.2_290421-1015-1;60.024;1.0.0.367;1;Chronos;1861376075;Full;3.0.3.80;3.0.3.80;05/04/2021;04/05/2021 12:54;14:54:39;3.0.3.82;1;Chronos;Chronos;1;1;1;Training;Generalbloc;;;Chronos;pretest;;1;;;;;;;TRAININGVV;SpatialTaskTraining;1;1;1;Chronos;;;;;;;;;;;;;;;;;;;;;;;;;;;;;;8;1;1;8;4;blocVVstimTraining;LISTVVRANDOM1;VV_290421/890.png;VV_290421/895.png;0;;Chronos;-999999;-1;518208;0;5;1963;520171
EXP2.2_290421;1015;1;Chronos;<ChronosDeviceInfo><FriendlyName>MyChronos</FriendlyName><DeviceIndex>1</DeviceIndex><SerialNumber>CHR-04301-1186</SerialNumber><EBNVersion>3.0.3.80</EBNVersion><FirmwareVersion>1.33</FirmwareVersion><APIVersion>1.33</APIVersion><USBHostControllerVersion>2.0</USBHostControllerVersion><USBConnectionRoute>USB#ROOT_HUB20#4&9bd2e8a&0#{f18a0e88-c30c-11d0-8815-00a0c906bed8} + USB#VID_8087&PID_0024#5&3026c139&0&1#{f18a0e88-c30c-11d0-8815-00a0c906bed8}(1) + VID_2266&PID_0007(7)</USBConnectionRoute></ChronosDeviceInfo>;"<?xml version=""1.0""?>\n<Clock xmlns:dt=""urn:schemas-microsoft-com:datatypes""><Description dt:dt=""string"">E-Prime Primary Realtime Clock</Description><StartTime><Timestamp dt:dt=""int"">0</Timestamp><DateUtc dt:dt=""string"">2021-05-04T12:54:39Z</DateUtc></StartTime><FrequencyChanges><FrequencyChange><Frequency dt:dt=""r8"">2435576</Frequency><Timestamp dt:dt=""r8"">57695471460</Timestamp><Current dt:dt=""r8"">0</Current><DateUtc dt:dt=""string"">2021-05-04T12:54:39Z</DateUtc></FrequencyChange></FrequencyChanges></Clock>\n";EXP2.2_290421-1015-1;60.024;1.0.0.367;1;Chronos;1861376075;Full;3.0.3.80;3.0.3.80;05/04/2021;04/05/2021 12:54;14:54:39;3.0.3.82;1;Chronos;Chronos;1;1;1;Training;Generalbloc;;;Chronos;pretest;;1;;;;;;;TRAININGVV;SpatialTaskTraining;1;1;1;Chronos;;;;;;;;;;;;;;;;;;;;;;;;;;;;;;9;1;1;9;6;blocVVstimTraining;LISTVVRANDOM1;VV_290421/900.png;VV_290421/905.png;0;;Chronos;-999999;0;522190;0;5;3339;525529
EXP2.2_290421;1015;1;Chronos;<ChronosDeviceInfo><FriendlyName>MyChronos</FriendlyName><DeviceIndex>1</DeviceIndex><SerialNumber>CHR-04301-1186</SerialNumber><EBNVersion>3.0.3.80</EBNVersion><FirmwareVersion>1.33</FirmwareVersion><APIVersion>1.33</APIVersion><USBHostControllerVersion>2.0</USBHostControllerVersion><USBConnectionRoute>USB#ROOT_HUB20#4&9bd2e8a&0#{f18a0e88-c30c-11d0-8815-00a0c906bed8} + USB#VID_8087&PID_0024#5&3026c139&0&1#{f18a0e88-c30c-11d0-8815-00a0c906bed8}(1) + VID_2266&PID_0007(7)</USBConnectionRoute></ChronosDeviceInfo>;"<?xml version=""1.0""?>\n<Clock xmlns:dt=""urn:schemas-microsoft-com:datatypes""><Description dt:dt=""string"">E-Prime Primary Realtime Clock</Description><StartTime><Timestamp dt:dt=""int"">0</Timestamp><DateUtc dt:dt=""string"">2021-05-04T12:54:39Z</DateUtc></StartTime><FrequencyChanges><FrequencyChange><Frequency dt:dt=""r8"">2435576</Frequency><Timestamp dt:dt=""r8"">57695471460</Timestamp><Current dt:dt=""r8"">0</Current><DateUtc dt:dt=""string"">2021-05-04T12:54:39Z</DateUtc></FrequencyChange></FrequencyChanges></Clock>\n";EXP2.2_290421-1015-1;60.024;1.0.0.367;1;Chronos;1861376075;Full;3.0.3.80;3.0.3.80;05/04/2021;04/05/2021 12:54;14:54:39;3.0.3.82;1;Chronos;Chronos;1;1;1;Training;Generalbloc;;;Chronos;pretest;;1;;;;;;;TRAININGVV;SpatialTaskTraining;1;1;1;Chronos;;;;;;;;;;;;;;;;;;;;;;;;;;;;;;10;1;1;10;8;blocVVstimTraining;LISTVVRANDOM1;VV_290421/910.png;VV_290421/915.png;0;;Chronos;-999999;0;527555;0;5;360;527915
EXP2.2_290421;1015;1;Chronos;<ChronosDeviceInfo><FriendlyName>MyChronos</FriendlyName><DeviceIndex>1</DeviceIndex><SerialNumber>CHR-04301-1186</SerialNumber><EBNVersion>3.0.3.80</EBNVersion><FirmwareVersion>1.33</FirmwareVersion><APIVersion>1.33</APIVersion><USBHostControllerVersion>2.0</USBHostControllerVersion><USBConnectionRoute>USB#ROOT_HUB20#4&9bd2e8a&0#{f18a0e88-c30c-11d0-8815-00a0c906bed8} + USB#VID_8087&PID_0024#5&3026c139&0&1#{f18a0e88-c30c-11d0-8815-00a0c906bed8}(1) + VID_2266&PID_0007(7)</USBConnectionRoute></ChronosDeviceInfo>;"<?xml version=""1.0""?>\n<Clock xmlns:dt=""urn:schemas-microsoft-com:datatypes""><Description dt:dt=""string"">E-Prime Primary Realtime Clock</Description><StartTime><Timestamp dt:dt=""int"">0</Timestamp><DateUtc dt:dt=""string"">2021-05-04T12:54:39Z</DateUtc></StartTime><FrequencyChanges><FrequencyChange><Frequency dt:dt=""r8"">2435576</Frequency><Timestamp dt:dt=""r8"">57695471460</Timestamp><Current dt:dt=""r8"">0</Current><DateUtc dt:dt=""string"">2021-05-04T12:54:39Z</DateUtc></FrequencyChange></FrequencyChanges></Clock>\n";EXP2.2_290421-1015-1;60.024;1.0.0.367;1;Chronos;1861376075;Full;3.0.3.80;3.0.3.80;05/04/2021;04/05/2021 12:54;14:54:39;3.0.3.82;2;Chronos;;2;1;2;TESTVV;Generalbloc;;;;pretest;Chronos;1;5;VV_290421/925.png;11;1;1;25;blocVVstim;listVVTrial;;;;Chronos;0;;0;-1;569105;200;;0;0;1;5;Chronos;0;0;569305;300;5;720;570025;1;5;Chronos;0;0;569605;0;5;420;570025;;;;;;;;;;;;;;;;;;;
EXP2.2_290421;1015;1;Chronos;<ChronosDeviceInfo><FriendlyName>MyChronos</FriendlyName><DeviceIndex>1</DeviceIndex><SerialNumber>CHR-04301-1186</SerialNumber><EBNVersion>3.0.3.80</EBNVersion><FirmwareVersion>1.33</FirmwareVersion><APIVersion>1.33</APIVersion><USBHostControllerVersion>2.0</USBHostControllerVersion><USBConnectionRoute>USB#ROOT_HUB20#4&9bd2e8a&0#{f18a0e88-c30c-11d0-8815-00a0c906bed8} + USB#VID_8087&PID_0024#5&3026c139&0&1#{f18a0e88-c30c-11d0-8815-00a0c906bed8}(1) + VID_2266&PID_0007(7)</USBConnectionRoute></ChronosDeviceInfo>;"<?xml version=""1.0""?>\n<Clock xmlns:dt=""urn:schemas-microsoft-com:datatypes""><Description dt:dt=""string"">E-Prime Primary Realtime Clock</Description><StartTime><Timestamp dt:dt=""int"">0</Timestamp><DateUtc dt:dt=""string"">2021-05-04T12:54:39Z</DateUtc></StartTime><FrequencyChanges><FrequencyChange><Frequency dt:dt=""r8"">2435576</Frequency><Timestamp dt:dt=""r8"">57695471460</Timestamp><Current dt:dt=""r8"">0</Current><DateUtc dt:dt=""string"">2021-05-04T12:54:39Z</DateUtc></FrequencyChange></FrequencyChanges></Clock>\n";EXP2.2_290421-1015-1;60.024;1.0.0.367;1;Chronos;1861376075;Full;3.0.3.80;3.0.3.80;05/04/2021;04/05/2021 12:54;14:54:39;3.0.3.82;2;Chronos;;2;1;2;TESTVV;Generalbloc;;;;pretest;Chronos;2;5;VV_290421/920.png;10;1;2;20;blocVVstim;listVVTrial;;;;Chronos;0;;0;0;571538;199;;0;0;1;5;Chronos;1;-1;571737;300;5;563;572300;1;5;Chronos;0;0;572037;0;5;263;572300;;;;;;;;;;;;;;;;;;;
EXP2.2_290421;1015;1;Chronos;<ChronosDeviceInfo><FriendlyName>MyChronos</FriendlyName><DeviceIndex>1</DeviceIndex><SerialNumber>CHR-04301-1186</SerialNumber><EBNVersion>3.0.3.80</EBNVersion><FirmwareVersion>1.33</FirmwareVersion><APIVersion>1.33</APIVersion><USBHostControllerVersion>2.0</USBHostControllerVersion><USBConnectionRoute>USB#ROOT_HUB20#4&9bd2e8a&0#{f18a0e88-c30c-11d0-8815-00a0c906bed8} + USB#VID_8087&PID_0024#5&3026c139&0&1#{f18a0e88-c30c-11d0-8815-00a0c906bed8}(1) + VID_2266&PID_0007(7)</USBConnectionRoute></ChronosDeviceInfo>;"<?xml version=""1.0""?>\n<Clock xmlns:dt=""urn:schemas-microsoft-com:datatypes""><Description dt:dt=""string"">E-Prime Primary Realtime Clock</Description><StartTime><Timestamp dt:dt=""int"">0</Timestamp><DateUtc dt:dt=""string"">2021-05-04T12:54:39Z</DateUtc></StartTime><FrequencyChanges><FrequencyChange><Frequency dt:dt=""r8"">2435576</Frequency><Timestamp dt:dt=""r8"">57695471460</Timestamp><Current dt:dt=""r8"">0</Current><DateUtc dt:dt=""string"">2021-05-04T12:54:39Z</DateUtc></FrequencyChange></FrequencyChanges></Clock>\n";EXP2.2_290421-1015-1;60.024;1.0.0.367;1;Chronos;1861376075;Full;3.0.3.80;3.0.3.80;05/04/2021;04/05/2021 12:54;14:54:39;3.0.3.82;2;Chronos;;2;1;2;TESTVV;Generalbloc;;;;pretest;Chronos;3;1;VV_290421/885.png;3;1;3;-15;blocVVstim;listVVTrial;;;;Chronos;0;;0;-1;573820;200;;0;0;1;1;Chronos;0;0;574020;300;1;617;574637;1;1;Chronos;0;0;574320;0;1;317;574637;;;;;;;;;;;;;;;;;;;
EXP2.2_290421;1015;1;Chronos;<ChronosDeviceInfo><FriendlyName>MyChronos</FriendlyName><DeviceIndex>1</DeviceIndex><SerialNumber>CHR-04301-1186</SerialNumber><EBNVersion>3.0.3.80</EBNVersion><FirmwareVersion>1.33</FirmwareVersion><APIVersion>1.33</APIVersion><USBHostControllerVersion>2.0</USBHostControllerVersion><USBConnectionRoute>USB#ROOT_HUB20#4&9bd2e8a&0#{f18a0e88-c30c-11d0-8815-00a0c906bed8} + USB#VID_8087&PID_0024#5&3026c139&0&1#{f18a0e88-c30c-11d0-8815-00a0c906bed8}(1) + VID_2266&PID_0007(7)</USBConnectionRoute></ChronosDeviceInfo>;"<?xml version=""1.0""?>\n<Clock xmlns:dt=""urn:schemas-microsoft-com:datatypes""><Description dt:dt=""string"">E-Prime Primary Realtime Clock</Description><StartTime><Timestamp dt:dt=""int"">0</Timestamp><DateUtc dt:dt=""string"">2021-05-04T12:54:39Z</DateUtc></StartTime><FrequencyChanges><FrequencyChange><Frequency dt:dt=""r8"">2435576</Frequency><Timestamp dt:dt=""r8"">57695471460</Timestamp><Current dt:dt=""r8"">0</Current><DateUtc dt:dt=""string"">2021-05-04T12:54:39Z</DateUtc></FrequencyChange></FrequencyChanges></Clock>\n";EXP2.2_290421-1015-1;60.024;1.0.0.367;1;Chronos;1861376075;Full;3.0.3.80;3.0.3.80;05/04/2021;04/05/2021 12:54;14:54:39;3.0.3.82;2;Chronos;;2;1;2;TESTVV;Generalbloc;;;;pretest;Chronos;4;5;VV_290421/915.png;9;1;4;15;blocVVstim;listVVTrial;;;;Chronos;0;;1;-1;576152;200;;0;0;1;5;Chronos;1;0;576352;300;5;387;576739;1;5;Chronos;0;0;576652;0;5;87;576739;;;;;;;;;;;;;;;;;;;
EXP2.2_290421;1015;1;Chronos;<ChronosDeviceInfo><FriendlyName>MyChronos</FriendlyName><DeviceIndex>1</DeviceIndex><SerialNumber>CHR-04301-1186</SerialNumber><EBNVersion>3.0.3.80</EBNVersion><FirmwareVersion>1.33</FirmwareVersion><APIVersion>1.33</APIVersion><USBHostControllerVersion>2.0</USBHostControllerVersion><USBConnectionRoute>USB#ROOT_HUB20#4&9bd2e8a&0#{f18a0e88-c30c-11d0-8815-00a0c906bed8} + USB#VID_8087&PID_0024#5&3026c139&0&1#{f18a0e88-c30c-11d0-8815-00a0c906bed8}(1) + VID_2266&PID_0007(7)</USBConnectionRoute></ChronosDeviceInfo>;"<?xml version=""1.0""?>\n<Clock xmlns:dt=""urn:schemas-microsoft-com:datatypes""><Description dt:dt=""string"">E-Prime Primary Realtime Clock</Description><StartTime><Timestamp dt:dt=""int"">0</Timestamp><DateUtc dt:dt=""string"">2021-05-04T12:54:39Z</DateUtc></StartTime><FrequencyChanges><FrequencyChange><Frequency dt:dt=""r8"">2435576</Frequency><Timestamp dt:dt=""r8"">57695471460</Timestamp><Current dt:dt=""r8"">0</Current><DateUtc dt:dt=""string"">2021-05-04T12:54:39Z</DateUtc></FrequencyChange></FrequencyChanges></Clock>\n";EXP2.2_290421-1015-1;60.024;1.0.0.367;1;Chronos;1861376075;Full;3.0.3.80;3.0.3.80;05/04/2021;04/05/2021 12:54;14:54:39;3.0.3.82;2;Chronos;;2;1;2;TESTVV;Generalbloc;;;;pretest;Chronos;5;5;VV_290421/905.png;7;1;5;5;blocVVstim;listVVTrial;;;;Chronos;0;;0;0;578252;200;;0;0;1;5;Chronos;0;0;578452;299;5;1090;579542;1;5;Chronos;1;-1;578751;0;5;791;579542;;;;;;;;;;;;;;;;;;;
EXP2.2_290421;1015;1;Chronos;<ChronosDeviceInfo><FriendlyName>MyChronos</FriendlyName><DeviceIndex>1</DeviceIndex><SerialNumber>CHR-04301-1186</SerialNumber><EBNVersion>3.0.3.80</EBNVersion><FirmwareVersion>1.33</FirmwareVersion><APIVersion>1.33</APIVersion><USBHostControllerVersion>2.0</USBHostControllerVersion><USBConnectionRoute>USB#ROOT_HUB20#4&9bd2e8a&0#{f18a0e88-c30c-11d0-8815-00a0c906bed8} + USB#VID_8087&PID_0024#5&3026c139&0&1#{f18a0e88-c30c-11d0-8815-00a0c906bed8}(1) + VID_2266&PID_0007(7)</USBConnectionRoute></ChronosDeviceInfo>;"<?xml version=""1.0""?>\n<Clock xmlns:dt=""urn:schemas-microsoft-com:datatypes""><Description dt:dt=""string"">E-Prime Primary Realtime Clock</Description><StartTime><Timestamp dt:dt=""int"">0</Timestamp><DateUtc dt:dt=""string"">2021-05-04T12:54:39Z</DateUtc></StartTime><FrequencyChanges><FrequencyChange><Frequency dt:dt=""r8"">2435576</Frequency><Timestamp dt:dt=""r8"">57695471460</Timestamp><Current dt:dt=""r8"">0</Current><DateUtc dt:dt=""string"">2021-05-04T12:54:39Z</DateUtc></FrequencyChange></FrequencyChanges></Clock>\n";EXP2.2_290421-1015-1;60.024;1.0.0.367;1;Chronos;1861376075;Full;3.0.3.80;3.0.3.80;05/04/2021;04/05/2021 12:54;14:54:39;3.0.3.82;2;Chronos;;2;1;2;TESTVV;Generalbloc;;;;pretest;Chronos;6;5;VV_290421/910.png;8;1;6;10;blocVVstim;listVVTrial;;;;Chronos;0;;0;-1;581067;200;;0;0;1;5;Chronos;0;0;581267;300;5;850;582117;1;5;Chronos;0;0;581567;0;5;550;582117;;;;;;;;;;;;;;;;;;;
EXP2.2_290421;1015;1;Chronos;<ChronosDeviceInfo><FriendlyName>MyChronos</FriendlyName><DeviceIndex>1</DeviceIndex><SerialNumber>CHR-04301-1186</SerialNumber><EBNVersion>3.0.3.80</EBNVersion><FirmwareVersion>1.33</FirmwareVersion><APIVersion>1.33</APIVersion><USBHostControllerVersion>2.0</USBHostControllerVersion><USBConnectionRoute>USB#ROOT_HUB20#4&9bd2e8a&0#{f18a0e88-c30c-11d0-8815-00a0c906bed8} + USB#VID_8087&PID_0024#5&3026c139&0&1#{f18a0e88-c30c-11d0-8815-00a0c906bed8}(1) + VID_2266&PID_0007(7)</USBConnectionRoute></ChronosDeviceInfo>;"<?xml version=""1.0""?>\n<Clock xmlns:dt=""urn:schemas-microsoft-com:datatypes""><Description dt:dt=""string"">E-Prime Primary Realtime Clock</Description><StartTime><Timestamp dt:dt=""int"">0</Timestamp><DateUtc dt:dt=""string"">2021-05-04T12:54:39Z</DateUtc></StartTime><FrequencyChanges><FrequencyChange><Frequency dt:dt=""r8"">2435576</Frequency><Timestamp dt:dt=""r8"">57695471460</Timestamp><Current dt:dt=""r8"">0</Current><DateUtc dt:dt=""string"">2021-05-04T12:54:39Z</DateUtc></FrequencyChange></FrequencyChanges></Clock>\n";EXP2.2_290421-1015-1;60.024;1.0.0.367;1;Chronos;1861376075;Full;3.0.3.80;3.0.3.80;05/04/2021;04/05/2021 12:54;14:54:39;3.0.3.82;2;Chronos;;2;1;2;TESTVV;Generalbloc;;;;pretest;Chronos;7;1;VV_290421/880.png;2;1;7;-20;blocVVstim;listVVTrial;;;;Chronos;0;;0;0;583633;200;;0;0;1;1;Chronos;0;0;583833;300;1;653;584486;1;1;Chronos;0;0;584133;0;1;353;584486;;;;;;;;;;;;;;;;;;;
EXP2.2_290421;1015;1;Chronos;<ChronosDeviceInfo><FriendlyName>MyChronos</FriendlyName><DeviceIndex>1</DeviceIndex><SerialNumber>CHR-04301-1186</SerialNumber><EBNVersion>3.0.3.80</EBNVersion><FirmwareVersion>1.33</FirmwareVersion><APIVersion>1.33</APIVersion><USBHostControllerVersion>2.0</USBHostControllerVersion><USBConnectionRoute>USB#ROOT_HUB20#4&9bd2e8a&0#{f18a0e88-c30c-11d0-8815-00a0c906bed8} + USB#VID_8087&PID_0024#5&3026c139&0&1#{f18a0e88-c30c-11d0-8815-00a0c906bed8}(1) + VID_2266&PID_0007(7)</USBConnectionRoute></ChronosDeviceInfo>;"<?xml version=""1.0""?>\n<Clock xmlns:dt=""urn:schemas-microsoft-com:datatypes""><Description dt:dt=""string"">E-Prime Primary Realtime Clock</Description><StartTime><Timestamp dt:dt=""int"">0</Timestamp><DateUtc dt:dt=""string"">2021-05-04T12:54:39Z</DateUtc></StartTime><FrequencyChanges><FrequencyChange><Frequency dt:dt=""r8"">2435576</Frequency><Timestamp dt:dt=""r8"">57695471460</Timestamp><Current dt:dt=""r8"">0</Current><DateUtc dt:dt=""string"">2021-05-04T12:54:39Z</DateUtc></FrequencyChange></FrequencyChanges></Clock>\n";EXP2.2_290421-1015-1;60.024;1.0.0.367;1;Chronos;1861376075;Full;3.0.3.80;3.0.3.80;05/04/2021;04/05/2021 12:54;14:54:39;3.0.3.82;2;Chronos;;2;1;2;TESTVV;Generalbloc;;;;pretest;Chronos;8;1;VV_290421/895.png;5;1;8;-5;blocVVstim;listVVTrial;;;;Chronos;0;;0;-1;586015;200;;0;0;1;1;Chronos;0;0;586215;300;1;2002;588217;1;1;Chronos;0;0;586515;0;1;1702;588217;;;;;;;;;;;;;;;;;;;
EXP2.2_290421;1015;1;Chronos;<ChronosDeviceInfo><FriendlyName>MyChronos</FriendlyName><DeviceIndex>1</DeviceIndex><SerialNumber>CHR-04301-1186</SerialNumber><EBNVersion>3.0.3.80</EBNVersion><FirmwareVersion>1.33</FirmwareVersion><APIVersion>1.33</APIVersion><USBHostControllerVersion>2.0</USBHostControllerVersion><USBConnectionRoute>USB#ROOT_HUB20#4&9bd2e8a&0#{f18a0e88-c30c-11d0-8815-00a0c906bed8} + USB#VID_8087&PID_0024#5&3026c139&0&1#{f18a0e88-c30c-11d0-8815-00a0c906bed8}(1) + VID_2266&PID_0007(7)</USBConnectionRoute></ChronosDeviceInfo>;"<?xml version=""1.0""?>\n<Clock xmlns:dt=""urn:schemas-microsoft-com:datatypes""><Description dt:dt=""string"">E-Prime Primary Realtime Clock</Description><StartTime><Timestamp dt:dt=""int"">0</Timestamp><DateUtc dt:dt=""string"">2021-05-04T12:54:39Z</DateUtc></StartTime><FrequencyChanges><FrequencyChange><Frequency dt:dt=""r8"">2435576</Frequency><Timestamp dt:dt=""r8"">57695471460</Timestamp><Current dt:dt=""r8"">0</Current><DateUtc dt:dt=""string"">2021-05-04T12:54:39Z</DateUtc></FrequencyChange></FrequencyChanges></Clock>\n";EXP2.2_290421-1015-1;60.024;1.0.0.367;1;Chronos;1861376075;Full;3.0.3.80;3.0.3.80;05/04/2021;04/05/2021 12:54;14:54:39;3.0.3.82;2;Chronos;;2;1;2;TESTVV;Generalbloc;;;;pretest;Chronos;9;5;VV_290421/910.png;8;1;9;10;blocVVstim;listVVTrial;;;;Chronos;0;;1;-1;589730;200;;0;0;1;5;Chronos;0;0;589930;300;5;799;590729;1;5;Chronos;0;0;590230;0;5;499;590729;;;;;;;;;;;;;;;;;;;
EXP2.2_290421;1015;1;Chronos;<ChronosDeviceInfo><FriendlyName>MyChronos</FriendlyName><DeviceIndex>1</DeviceIndex><SerialNumber>CHR-04301-1186</SerialNumber><EBNVersion>3.0.3.80</EBNVersion><FirmwareVersion>1.33</FirmwareVersion><APIVersion>1.33</APIVersion><USBHostControllerVersion>2.0</USBHostControllerVersion><USBConnectionRoute>USB#ROOT_HUB20#4&9bd2e8a&0#{f18a0e88-c30c-11d0-8815-00a0c906bed8} + USB#VID_8087&PID_0024#5&3026c139&0&1#{f18a0e88-c30c-11d0-8815-00a0c906bed8}(1) + VID_2266&PID_0007(7)</USBConnectionRoute></ChronosDeviceInfo>;"<?xml version=""1.0""?>\n<Clock xmlns:dt=""urn:schemas-microsoft-com:datatypes""><Description dt:dt=""string"">E-Prime Primary Realtime Clock</Description><StartTime><Timestamp dt:dt=""int"">0</Timestamp><DateUtc dt:dt=""string"">2021-05-04T12:54:39Z</DateUtc></StartTime><FrequencyChanges><FrequencyChange><Frequency dt:dt=""r8"">2435576</Frequency><Timestamp dt:dt=""r8"">57695471460</Timestamp><Current dt:dt=""r8"">0</Current><DateUtc dt:dt=""string"">2021-05-04T12:54:39Z</DateUtc></FrequencyChange></FrequencyChanges></Clock>\n";EXP2.2_290421-1015-1;60.024;1.0.0.367;1;Chronos;1861376075;Full;3.0.3.80;3.0.3.80;05/04/2021;04/05/2021 12:54;14:54:39;3.0.3.82;2;Chronos;;2;1;2;TESTVV;Generalbloc;;;;pretest;Chronos;10;1;VV_290421/875.png;1;1;10;-25;blocVVstim;listVVTrial;;;;Chronos;0;;0;-1;592246;200;;0;0;1;1;Chronos;0;0;592446;300;1;424;592870;1;1;Chronos;0;0;592746;0;1;124;592870;;;;;;;;;;;;;;;;;;;
EXP2.2_290421;1015;1;Chronos;<ChronosDeviceInfo><FriendlyName>MyChronos</FriendlyName><DeviceIndex>1</DeviceIndex><SerialNumber>CHR-04301-1186</SerialNumber><EBNVersion>3.0.3.80</EBNVersion><FirmwareVersion>1.33</FirmwareVersion><APIVersion>1.33</APIVersion><USBHostControllerVersion>2.0</USBHostControllerVersion><USBConnectionRoute>USB#ROOT_HUB20#4&9bd2e8a&0#{f18a0e88-c30c-11d0-8815-00a0c906bed8} + USB#VID_8087&PID_0024#5&3026c139&0&1#{f18a0e88-c30c-11d0-8815-00a0c906bed8}(1) + VID_2266&PID_0007(7)</USBConnectionRoute></ChronosDeviceInfo>;"<?xml version=""1.0""?>\n<Clock xmlns:dt=""urn:schemas-microsoft-com:datatypes""><Description dt:dt=""string"">E-Prime Primary Realtime Clock</Description><StartTime><Timestamp dt:dt=""int"">0</Timestamp><DateUtc dt:dt=""string"">2021-05-04T12:54:39Z</DateUtc></StartTime><FrequencyChanges><FrequencyChange><Frequency dt:dt=""r8"">2435576</Frequency><Timestamp dt:dt=""r8"">57695471460</Timestamp><Current dt:dt=""r8"">0</Current><DateUtc dt:dt=""string"">2021-05-04T12:54:39Z</DateUtc></FrequencyChange></FrequencyChanges></Clock>\n";EXP2.2_290421-1015-1;60.024;1.0.0.367;1;Chronos;1861376075;Full;3.0.3.80;3.0.3.80;05/04/2021;04/05/2021 12:54;14:54:39;3.0.3.82;2;Chronos;;2;1;2;TESTVV;Generalbloc;;;;pretest;Chronos;11;1;VV_290421/890.png;4;1;11;-10;blocVVstim;listVVTrial;;;;Chronos;0;;0;-1;594395;200;;0;0;1;1;Chronos;0;0;594595;300;1;645;595240;1;1;Chronos;0;0;594895;0;1;345;595240;;;;;;;;;;;;;;;;;;;
EXP2.2_290421;1015;1;Chronos;<ChronosDeviceInfo><FriendlyName>MyChronos</FriendlyName><DeviceIndex>1</DeviceIndex><SerialNumber>CHR-04301-1186</SerialNumber><EBNVersion>3.0.3.80</EBNVersion><FirmwareVersion>1.33</FirmwareVersion><APIVersion>1.33</APIVersion><USBHostControllerVersion>2.0</USBHostControllerVersion><USBConnectionRoute>USB#ROOT_HUB20#4&9bd2e8a&0#{f18a0e88-c30c-11d0-8815-00a0c906bed8} + USB#VID_8087&PID_0024#5&3026c139&0&1#{f18a0e88-c30c-11d0-8815-00a0c906bed8}(1) + VID_2266&PID_0007(7)</USBConnectionRoute></ChronosDeviceInfo>;"<?xml version=""1.0""?>\n<Clock xmlns:dt=""urn:schemas-microsoft-com:datatypes""><Description dt:dt=""string"">E-Prime Primary Realtime Clock</Description><StartTime><Timestamp dt:dt=""int"">0</Timestamp><DateUtc dt:dt=""string"">2021-05-04T12:54:39Z</DateUtc></StartTime><FrequencyChanges><FrequencyChange><Frequency dt:dt=""r8"">2435576</Frequency><Timestamp dt:dt=""r8"">57695471460</Timestamp><Current dt:dt=""r8"">0</Current><DateUtc dt:dt=""string"">2021-05-04T12:54:39Z</DateUtc></FrequencyChange></FrequencyChanges></Clock>\n";EXP2.2_290421-1015-1;60.024;1.0.0.367;1;Chronos;1861376075;Full;3.0.3.80;3.0.3.80;05/04/2021;04/05/2021 12:54;14:54:39;3.0.3.82;2;Chronos;;2;1;2;TESTVV;Generalbloc;;;;pretest;Chronos;12;1;VV_290421/885.png;3;1;12;-15;blocVVstim;listVVTrial;;;;Chronos;0;;0;-1;596761;200;;0;0;1;1;Chronos;0;0;596961;300;1;623;597584;1;1;Chronos;0;0;597261;0;1;323;597584;;;;;;;;;;;;;;;;;;;
EXP2.2_290421;1015;1;Chronos;<ChronosDeviceInfo><FriendlyName>MyChronos</FriendlyName><DeviceIndex>1</DeviceIndex><SerialNumber>CHR-04301-1186</SerialNumber><EBNVersion>3.0.3.80</EBNVersion><FirmwareVersion>1.33</FirmwareVersion><APIVersion>1.33</APIVersion><USBHostControllerVersion>2.0</USBHostControllerVersion><USBConnectionRoute>USB#ROOT_HUB20#4&9bd2e8a&0#{f18a0e88-c30c-11d0-8815-00a0c906bed8} + USB#VID_8087&PID_0024#5&3026c139&0&1#{f18a0e88-c30c-11d0-8815-00a0c906bed8}(1) + VID_2266&PID_0007(7)</USBConnectionRoute></ChronosDeviceInfo>;"<?xml version=""1.0""?>\n<Clock xmlns:dt=""urn:schemas-microsoft-com:datatypes""><Description dt:dt=""string"">E-Prime Primary Realtime Clock</Description><StartTime><Timestamp dt:dt=""int"">0</Timestamp><DateUtc dt:dt=""string"">2021-05-04T12:54:39Z</DateUtc></StartTime><FrequencyChanges><FrequencyChange><Frequency dt:dt=""r8"">2435576</Frequency><Timestamp dt:dt=""r8"">57695471460</Timestamp><Current dt:dt=""r8"">0</Current><DateUtc dt:dt=""string"">2021-05-04T12:54:39Z</DateUtc></FrequencyChange></FrequencyChanges></Clock>\n";EXP2.2_290421-1015-1;60.024;1.0.0.367;1;Chronos;1861376075;Full;3.0.3.80;3.0.3.80;05/04/2021;04/05/2021 12:54;14:54:39;3.0.3.82;2;Chronos;;2;1;2;TESTVV;Generalbloc;;;;pretest;Chronos;13;15;VV_290421/900.png;6;1;13;0;blocVVstim;listVVTrial;;;;Chronos;0;;0;-1;599110;200;;0;0;0;15;Chronos;0;0;599310;300;5;1167;600477;0;15;Chronos;0;0;599610;0;5;867;600477;;;;;;;;;;;;;;;;;;;
EXP2.2_290421;1015;1;Chronos;<ChronosDeviceInfo><FriendlyName>MyChronos</FriendlyName><DeviceIndex>1</DeviceIndex><SerialNumber>CHR-04301-1186</SerialNumber><EBNVersion>3.0.3.80</EBNVersion><FirmwareVersion>1.33</FirmwareVersion><APIVersion>1.33</APIVersion><USBHostControllerVersion>2.0</USBHostControllerVersion><USBConnectionRoute>USB#ROOT_HUB20#4&9bd2e8a&0#{f18a0e88-c30c-11d0-8815-00a0c906bed8} + USB#VID_8087&PID_0024#5&3026c139&0&1#{f18a0e88-c30c-11d0-8815-00a0c906bed8}(1) + VID_2266&PID_0007(7)</USBConnectionRoute></ChronosDeviceInfo>;"<?xml version=""1.0""?>\n<Clock xmlns:dt=""urn:schemas-microsoft-com:datatypes""><Description dt:dt=""string"">E-Prime Primary Realtime Clock</Description><StartTime><Timestamp dt:dt=""int"">0</Timestamp><DateUtc dt:dt=""string"">2021-05-04T12:54:39Z</DateUtc></StartTime><FrequencyChanges><FrequencyChange><Frequency dt:dt=""r8"">2435576</Frequency><Timestamp dt:dt=""r8"">57695471460</Timestamp><Current dt:dt=""r8"">0</Current><DateUtc dt:dt=""string"">2021-05-04T12:54:39Z</DateUtc></FrequencyChange></FrequencyChanges></Clock>\n";EXP2.2_290421-1015-1;60.024;1.0.0.367;1;Chronos;1861376075;Full;3.0.3.80;3.0.3.80;05/04/2021;04/05/2021 12:54;14:54:39;3.0.3.82;2;Chronos;;2;1;2;TESTVV;Generalbloc;;;;pretest;Chronos;14;1;VV_290421/890.png;4;1;14;-10;blocVVstim;listVVTrial;;;;Chronos;0;;0;-1;601992;200;;0;0;0;1;Chronos;0;0;602192;300;5;1792;603984;0;1;Chronos;0;0;602492;0;5;1492;603984;;;;;;;;;;;;;;;;;;;
EXP2.2_290421;1015;1;Chronos;<ChronosDeviceInfo><FriendlyName>MyChronos</FriendlyName><DeviceIndex>1</DeviceIndex><SerialNumber>CHR-04301-1186</SerialNumber><EBNVersion>3.0.3.80</EBNVersion><FirmwareVersion>1.33</FirmwareVersion><APIVersion>1.33</APIVersion><USBHostControllerVersion>2.0</USBHostControllerVersion><USBConnectionRoute>USB#ROOT_HUB20#4&9bd2e8a&0#{f18a0e88-c30c-11d0-8815-00a0c906bed8} + USB#VID_8087&PID_0024#5&3026c139&0&1#{f18a0e88-c30c-11d0-8815-00a0c906bed8}(1) + VID_2266&PID_0007(7)</USBConnectionRoute></ChronosDeviceInfo>;"<?xml version=""1.0""?>\n<Clock xmlns:dt=""urn:schemas-microsoft-com:datatypes""><Description dt:dt=""string"">E-Prime Primary Realtime Clock</Description><StartTime><Timestamp dt:dt=""int"">0</Timestamp><DateUtc dt:dt=""string"">2021-05-04T12:54:39Z</DateUtc></StartTime><FrequencyChanges><FrequencyChange><Frequency dt:dt=""r8"">2435576</Frequency><Timestamp dt:dt=""r8"">57695471460</Timestamp><Current dt:dt=""r8"">0</Current><DateUtc dt:dt=""string"">2021-05-04T12:54:39Z</DateUtc></FrequencyChange></FrequencyChanges></Clock>\n";EXP2.2_290421-1015-1;60.024;1.0.0.367;1;Chronos;1861376075;Full;3.0.3.80;3.0.3.80;05/04/2021;04/05/2021 12:54;14:54:39;3.0.3.82;2;Chronos;;2;1;2;TESTVV;Generalbloc;;;;pretest;Chronos;15;1;VV_290421/875.png;1;1;15;-25;blocVVstim;listVVTrial;;;;Chronos;0;;0;0;605508;200;;0;0;1;1;Chronos;0;0;605708;299;1;498;606206;1;1;Chronos;1;-1;606007;0;1;199;606206;;;;;;;;;;;;;;;;;;;
EXP2.2_290421;1015;1;Chronos;<ChronosDeviceInfo><FriendlyName>MyChronos</FriendlyName><DeviceIndex>1</DeviceIndex><SerialNumber>CHR-04301-1186</SerialNumber><EBNVersion>3.0.3.80</EBNVersion><FirmwareVersion>1.33</FirmwareVersion><APIVersion>1.33</APIVersion><USBHostControllerVersion>2.0</USBHostControllerVersion><USBConnectionRoute>USB#ROOT_HUB20#4&9bd2e8a&0#{f18a0e88-c30c-11d0-8815-00a0c906bed8} + USB#VID_8087&PID_0024#5&3026c139&0&1#{f18a0e88-c30c-11d0-8815-00a0c906bed8}(1) + VID_2266&PID_0007(7)</USBConnectionRoute></ChronosDeviceInfo>;"<?xml version=""1.0""?>\n<Clock xmlns:dt=""urn:schemas-microsoft-com:datatypes""><Description dt:dt=""string"">E-Prime Primary Realtime Clock</Description><StartTime><Timestamp dt:dt=""int"">0</Timestamp><DateUtc dt:dt=""string"">2021-05-04T12:54:39Z</DateUtc></StartTime><FrequencyChanges><FrequencyChange><Frequency dt:dt=""r8"">2435576</Frequency><Timestamp dt:dt=""r8"">57695471460</Timestamp><Current dt:dt=""r8"">0</Current><DateUtc dt:dt=""string"">2021-05-04T12:54:39Z</DateUtc></FrequencyChange></FrequencyChanges></Clock>\n";EXP2.2_290421-1015-1;60.024;1.0.0.367;1;Chronos;1861376075;Full;3.0.3.80;3.0.3.80;05/04/2021;04/05/2021 12:54;14:54:39;3.0.3.82;2;Chronos;;2;1;2;TESTVV;Generalbloc;;;;pretest;Chronos;16;1;VV_290421/895.png;5;1;16;-5;blocVVstim;listVVTrial;;;;Chronos;0;;1;-1;607723;200;;0;0;1;1;Chronos;0;0;607923;300;1;808;608731;1;1;Chronos;0;0;608223;0;1;508;608731;;;;;;;;;;;;;;;;;;;
EXP2.2_290421;1015;1;Chronos;<ChronosDeviceInfo><FriendlyName>MyChronos</FriendlyName><DeviceIndex>1</DeviceIndex><SerialNumber>CHR-04301-1186</SerialNumber><EBNVersion>3.0.3.80</EBNVersion><FirmwareVersion>1.33</FirmwareVersion><APIVersion>1.33</APIVersion><USBHostControllerVersion>2.0</USBHostControllerVersion><USBConnectionRoute>USB#ROOT_HUB20#4&9bd2e8a&0#{f18a0e88-c30c-11d0-8815-00a0c906bed8} + USB#VID_8087&PID_0024#5&3026c139&0&1#{f18a0e88-c30c-11d0-8815-00a0c906bed8}(1) + VID_2266&PID_0007(7)</USBConnectionRoute></ChronosDeviceInfo>;"<?xml version=""1.0""?>\n<Clock xmlns:dt=""urn:schemas-microsoft-com:datatypes""><Description dt:dt=""string"">E-Prime Primary Realtime Clock</Description><StartTime><Timestamp dt:dt=""int"">0</Timestamp><DateUtc dt:dt=""string"">2021-05-04T12:54:39Z</DateUtc></StartTime><FrequencyChanges><FrequencyChange><Frequency dt:dt=""r8"">2435576</Frequency><Timestamp dt:dt=""r8"">57695471460</Timestamp><Current dt:dt=""r8"">0</Current><DateUtc dt:dt=""string"">2021-05-04T12:54:39Z</DateUtc></FrequencyChange></FrequencyChanges></Clock>\n";EXP2.2_290421-1015-1;60.024;1.0.0.367;1;Chronos;1861376075;Full;3.0.3.80;3.0.3.80;05/04/2021;04/05/2021 12:54;14:54:39;3.0.3.82;2;Chronos;;2;1;2;TESTVV;Generalbloc;;;;pretest;Chronos;17;1;VV_290421/880.png;2;1;17;-20;blocVVstim;listVVTrial;;;;Chronos;0;;0;0;610256;200;;0;0;1;1;Chronos;0;0;610456;300;1;1148;611604;1;1;Chronos;0;0;610756;0;1;848;611604;;;;;;;;;;;;;;;;;;;
EXP2.2_290421;1015;1;Chronos;<ChronosDeviceInfo><FriendlyName>MyChronos</FriendlyName><DeviceIndex>1</DeviceIndex><SerialNumber>CHR-04301-1186</SerialNumber><EBNVersion>3.0.3.80</EBNVersion><FirmwareVersion>1.33</FirmwareVersion><APIVersion>1.33</APIVersion><USBHostControllerVersion>2.0</USBHostControllerVersion><USBConnectionRoute>USB#ROOT_HUB20#4&9bd2e8a&0#{f18a0e88-c30c-11d0-8815-00a0c906bed8} + USB#VID_8087&PID_0024#5&3026c139&0&1#{f18a0e88-c30c-11d0-8815-00a0c906bed8}(1) + VID_2266&PID_0007(7)</USBConnectionRoute></ChronosDeviceInfo>;"<?xml version=""1.0""?>\n<Clock xmlns:dt=""urn:schemas-microsoft-com:datatypes""><Description dt:dt=""string"">E-Prime Primary Realtime Clock</Description><StartTime><Timestamp dt:dt=""int"">0</Timestamp><DateUtc dt:dt=""string"">2021-05-04T12:54:39Z</DateUtc></StartTime><FrequencyChanges><FrequencyChange><Frequency dt:dt=""r8"">2435576</Frequency><Timestamp dt:dt=""r8"">57695471460</Timestamp><Current dt:dt=""r8"">0</Current><DateUtc dt:dt=""string"">2021-05-04T12:54:39Z</DateUtc></FrequencyChange></FrequencyChanges></Clock>\n";EXP2.2_290421-1015-1;60.024;1.0.0.367;1;Chronos;1861376075;Full;3.0.3.80;3.0.3.80;05/04/2021;04/05/2021 12:54;14:54:39;3.0.3.82;2;Chronos;;2;1;2;TESTVV;Generalbloc;;;;pretest;Chronos;18;1;VV_290421/890.png;4;1;18;-10;blocVVstim;listVVTrial;;;;Chronos;0;;0;-1;613121;200;;0;0;1;1;Chronos;0;0;613321;300;1;2104;615425;1;1;Chronos;0;0;613621;0;1;1804;615425;;;;;;;;;;;;;;;;;;;
EXP2.2_290421;1015;1;Chronos;<ChronosDeviceInfo><FriendlyName>MyChronos</FriendlyName><DeviceIndex>1</DeviceIndex><SerialNumber>CHR-04301-1186</SerialNumber><EBNVersion>3.0.3.80</EBNVersion><FirmwareVersion>1.33</FirmwareVersion><APIVersion>1.33</APIVersion><USBHostControllerVersion>2.0</USBHostControllerVersion><USBConnectionRoute>USB#ROOT_HUB20#4&9bd2e8a&0#{f18a0e88-c30c-11d0-8815-00a0c906bed8} + USB#VID_8087&PID_0024#5&3026c139&0&1#{f18a0e88-c30c-11d0-8815-00a0c906bed8}(1) + VID_2266&PID_0007(7)</USBConnectionRoute></ChronosDeviceInfo>;"<?xml version=""1.0""?>\n<Clock xmlns:dt=""urn:schemas-microsoft-com:datatypes""><Description dt:dt=""string"">E-Prime Primary Realtime Clock</Description><StartTime><Timestamp dt:dt=""int"">0</Timestamp><DateUtc dt:dt=""string"">2021-05-04T12:54:39Z</DateUtc></StartTime><FrequencyChanges><FrequencyChange><Frequency dt:dt=""r8"">2435576</Frequency><Timestamp dt:dt=""r8"">57695471460</Timestamp><Current dt:dt=""r8"">0</Current><DateUtc dt:dt=""string"">2021-05-04T12:54:39Z</DateUtc></FrequencyChange></FrequencyChanges></Clock>\n";EXP2.2_290421-1015-1;60.024;1.0.0.367;1;Chronos;1861376075;Full;3.0.3.80;3.0.3.80;05/04/2021;04/05/2021 12:54;14:54:39;3.0.3.82;2;Chronos;;2;1;2;TESTVV;Generalbloc;;;;pretest;Chronos;19;1;VV_290421/890.png;4;1;19;-10;blocVVstim;listVVTrial;;;;Chronos;0;;0;-1;616953;200;;0;0;1;1;Chronos;0;0;617153;300;1;477;617630;1;1;Chronos;0;0;617453;0;1;177;617630;;;;;;;;;;;;;;;;;;;
EXP2.2_290421;1015;1;Chronos;<ChronosDeviceInfo><FriendlyName>MyChronos</FriendlyName><DeviceIndex>1</DeviceIndex><SerialNumber>CHR-04301-1186</SerialNumber><EBNVersion>3.0.3.80</EBNVersion><FirmwareVersion>1.33</FirmwareVersion><APIVersion>1.33</APIVersion><USBHostControllerVersion>2.0</USBHostControllerVersion><USBConnectionRoute>USB#ROOT_HUB20#4&9bd2e8a&0#{f18a0e88-c30c-11d0-8815-00a0c906bed8} + USB#VID_8087&PID_0024#5&3026c139&0&1#{f18a0e88-c30c-11d0-8815-00a0c906bed8}(1) + VID_2266&PID_0007(7)</USBConnectionRoute></ChronosDeviceInfo>;"<?xml version=""1.0""?>\n<Clock xmlns:dt=""urn:schemas-microsoft-com:datatypes""><Description dt:dt=""string"">E-Prime Primary Realtime Clock</Description><StartTime><Timestamp dt:dt=""int"">0</Timestamp><DateUtc dt:dt=""string"">2021-05-04T12:54:39Z</DateUtc></StartTime><FrequencyChanges><FrequencyChange><Frequency dt:dt=""r8"">2435576</Frequency><Timestamp dt:dt=""r8"">57695471460</Timestamp><Current dt:dt=""r8"">0</Current><DateUtc dt:dt=""string"">2021-05-04T12:54:39Z</DateUtc></FrequencyChange></FrequencyChanges></Clock>\n";EXP2.2_290421-1015-1;60.024;1.0.0.367;1;Chronos;1861376075;Full;3.0.3.80;3.0.3.80;05/04/2021;04/05/2021 12:54;14:54:39;3.0.3.82;2;Chronos;;2;1;2;TESTVV;Generalbloc;;;;pretest;Chronos;20;1;VV_290421/890.png;4;1;20;-10;blocVVstim;listVVTrial;;;;Chronos;0;;0;-1;619152;200;;0;0;0;1;Chronos;0;0;619352;300;5;1587;620939;0;1;Chronos;0;0;619652;0;5;1287;620939;;;;;;;;;;;;;;;;;;;
EXP2.2_290421;1015;1;Chronos;<ChronosDeviceInfo><FriendlyName>MyChronos</FriendlyName><DeviceIndex>1</DeviceIndex><SerialNumber>CHR-04301-1186</SerialNumber><EBNVersion>3.0.3.80</EBNVersion><FirmwareVersion>1.33</FirmwareVersion><APIVersion>1.33</APIVersion><USBHostControllerVersion>2.0</USBHostControllerVersion><USBConnectionRoute>USB#ROOT_HUB20#4&9bd2e8a&0#{f18a0e88-c30c-11d0-8815-00a0c906bed8} + USB#VID_8087&PID_0024#5&3026c139&0&1#{f18a0e88-c30c-11d0-8815-00a0c906bed8}(1) + VID_2266&PID_0007(7)</USBConnectionRoute></ChronosDeviceInfo>;"<?xml version=""1.0""?>\n<Clock xmlns:dt=""urn:schemas-microsoft-com:datatypes""><Description dt:dt=""string"">E-Prime Primary Realtime Clock</Description><StartTime><Timestamp dt:dt=""int"">0</Timestamp><DateUtc dt:dt=""string"">2021-05-04T12:54:39Z</DateUtc></StartTime><FrequencyChanges><FrequencyChange><Frequency dt:dt=""r8"">2435576</Frequency><Timestamp dt:dt=""r8"">57695471460</Timestamp><Current dt:dt=""r8"">0</Current><DateUtc dt:dt=""string"">2021-05-04T12:54:39Z</DateUtc></FrequencyChange></FrequencyChanges></Clock>\n";EXP2.2_290421-1015-1;60.024;1.0.0.367;1;Chronos;1861376075;Full;3.0.3.80;3.0.3.80;05/04/2021;04/05/2021 12:54;14:54:39;3.0.3.82;2;Chronos;;2;1;2;TESTVV;Generalbloc;;;;pretest;Chronos;21;5;VV_290421/920.png;10;1;21;20;blocVVstim;listVVTrial;;;;Chronos;0;;0;0;622468;200;;0;0;1;5;Chronos;0;0;622668;299;5;517;623185;1;5;Chronos;1;-1;622967;0;5;218;623185;;;;;;;;;;;;;;;;;;;
EXP2.2_290421;1015;1;Chronos;<ChronosDeviceInfo><FriendlyName>MyChronos</FriendlyName><DeviceIndex>1</DeviceIndex><SerialNumber>CHR-04301-1186</SerialNumber><EBNVersion>3.0.3.80</EBNVersion><FirmwareVersion>1.33</FirmwareVersion><APIVersion>1.33</APIVersion><USBHostControllerVersion>2.0</USBHostControllerVersion><USBConnectionRoute>USB#ROOT_HUB20#4&9bd2e8a&0#{f18a0e88-c30c-11d0-8815-00a0c906bed8} + USB#VID_8087&PID_0024#5&3026c139&0&1#{f18a0e88-c30c-11d0-8815-00a0c906bed8}(1) + VID_2266&PID_0007(7)</USBConnectionRoute></ChronosDeviceInfo>;"<?xml version=""1.0""?>\n<Clock xmlns:dt=""urn:schemas-microsoft-com:datatypes""><Description dt:dt=""string"">E-Prime Primary Realtime Clock</Description><StartTime><Timestamp dt:dt=""int"">0</Timestamp><DateUtc dt:dt=""string"">2021-05-04T12:54:39Z</DateUtc></StartTime><FrequencyChanges><FrequencyChange><Frequency dt:dt=""r8"">2435576</Frequency><Timestamp dt:dt=""r8"">57695471460</Timestamp><Current dt:dt=""r8"">0</Current><DateUtc dt:dt=""string"">2021-05-04T12:54:39Z</DateUtc></FrequencyChange></FrequencyChanges></Clock>\n";EXP2.2_290421-1015-1;60.024;1.0.0.367;1;Chronos;1861376075;Full;3.0.3.80;3.0.3.80;05/04/2021;04/05/2021 12:54;14:54:39;3.0.3.82;2;Chronos;;2;1;2;TESTVV;Generalbloc;;;;pretest;Chronos;22;5;VV_290421/905.png;7;1;22;5;blocVVstim;listVVTrial;;;;Chronos;0;;0;-1;624700;200;;0;0;1;5;Chronos;0;0;624900;300;5;1134;626034;1;5;Chronos;0;0;625200;0;5;834;626034;;;;;;;;;;;;;;;;;;;
EXP2.2_290421;1015;1;Chronos;<ChronosDeviceInfo><FriendlyName>MyChronos</FriendlyName><DeviceIndex>1</DeviceIndex><SerialNumber>CHR-04301-1186</SerialNumber><EBNVersion>3.0.3.80</EBNVersion><FirmwareVersion>1.33</FirmwareVersion><APIVersion>1.33</APIVersion><USBHostControllerVersion>2.0</USBHostControllerVersion><USBConnectionRoute>USB#ROOT_HUB20#4&9bd2e8a&0#{f18a0e88-c30c-11d0-8815-00a0c906bed8} + USB#VID_8087&PID_0024#5&3026c139&0&1#{f18a0e88-c30c-11d0-8815-00a0c906bed8}(1) + VID_2266&PID_0007(7)</USBConnectionRoute></ChronosDeviceInfo>;"<?xml version=""1.0""?>\n<Clock xmlns:dt=""urn:schemas-microsoft-com:datatypes""><Description dt:dt=""string"">E-Prime Primary Realtime Clock</Description><StartTime><Timestamp dt:dt=""int"">0</Timestamp><DateUtc dt:dt=""string"">2021-05-04T12:54:39Z</DateUtc></StartTime><FrequencyChanges><FrequencyChange><Frequency dt:dt=""r8"">2435576</Frequency><Timestamp dt:dt=""r8"">57695471460</Timestamp><Current dt:dt=""r8"">0</Current><DateUtc dt:dt=""string"">2021-05-04T12:54:39Z</DateUtc></FrequencyChange></FrequencyChanges></Clock>\n";EXP2.2_290421-1015-1;60.024;1.0.0.367;1;Chronos;1861376075;Full;3.0.3.80;3.0.3.80;05/04/2021;04/05/2021 12:54;14:54:39;3.0.3.82;2;Chronos;;2;1;2;TESTVV;Generalbloc;;;;pretest;Chronos;23;5;VV_290421/925.png;11;1;23;25;blocVVstim;listVVTrial;;;;Chronos;0;;0;-1;627549;200;;0;0;1;5;Chronos;0;0;627749;300;5;548;628297;1;5;Chronos;0;0;628049;0;5;248;628297;;;;;;;;;;;;;;;;;;;
EXP2.2_290421;1015;1;Chronos;<ChronosDeviceInfo><FriendlyName>MyChronos</FriendlyName><DeviceIndex>1</DeviceIndex><SerialNumber>CHR-04301-1186</SerialNumber><EBNVersion>3.0.3.80</EBNVersion><FirmwareVersion>1.33</FirmwareVersion><APIVersion>1.33</APIVersion><USBHostControllerVersion>2.0</USBHostControllerVersion><USBConnectionRoute>USB#ROOT_HUB20#4&9bd2e8a&0#{f18a0e88-c30c-11d0-8815-00a0c906bed8} + USB#VID_8087&PID_0024#5&3026c139&0&1#{f18a0e88-c30c-11d0-8815-00a0c906bed8}(1) + VID_2266&PID_0007(7)</USBConnectionRoute></ChronosDeviceInfo>;"<?xml version=""1.0""?>\n<Clock xmlns:dt=""urn:schemas-microsoft-com:datatypes""><Description dt:dt=""string"">E-Prime Primary Realtime Clock</Description><StartTime><Timestamp dt:dt=""int"">0</Timestamp><DateUtc dt:dt=""string"">2021-05-04T12:54:39Z</DateUtc></StartTime><FrequencyChanges><FrequencyChange><Frequency dt:dt=""r8"">2435576</Frequency><Timestamp dt:dt=""r8"">57695471460</Timestamp><Current dt:dt=""r8"">0</Current><DateUtc dt:dt=""string"">2021-05-04T12:54:39Z</DateUtc></FrequencyChange></FrequencyChanges></Clock>\n";EXP2.2_290421-1015-1;60.024;1.0.0.367;1;Chronos;1861376075;Full;3.0.3.80;3.0.3.80;05/04/2021;04/05/2021 12:54;14:54:39;3.0.3.82;2;Chronos;;2;1;2;TESTVV;Generalbloc;;;;pretest;Chronos;24;1;VV_290421/880.png;2;1;24;-20;blocVVstim;listVVTrial;;;;Chronos;0;;0;0;629815;200;;0;0;1;1;Chronos;0;0;630015;300;1;559;630574;1;1;Chronos;0;0;630315;0;1;259;630574;;;;;;;;;;;;;;;;;;;
EXP2.2_290421;1015;1;Chronos;<ChronosDeviceInfo><FriendlyName>MyChronos</FriendlyName><DeviceIndex>1</DeviceIndex><SerialNumber>CHR-04301-1186</SerialNumber><EBNVersion>3.0.3.80</EBNVersion><FirmwareVersion>1.33</FirmwareVersion><APIVersion>1.33</APIVersion><USBHostControllerVersion>2.0</USBHostControllerVersion><USBConnectionRoute>USB#ROOT_HUB20#4&9bd2e8a&0#{f18a0e88-c30c-11d0-8815-00a0c906bed8} + USB#VID_8087&PID_0024#5&3026c139&0&1#{f18a0e88-c30c-11d0-8815-00a0c906bed8}(1) + VID_2266&PID_0007(7)</USBConnectionRoute></ChronosDeviceInfo>;"<?xml version=""1.0""?>\n<Clock xmlns:dt=""urn:schemas-microsoft-com:datatypes""><Description dt:dt=""string"">E-Prime Primary Realtime Clock</Description><StartTime><Timestamp dt:dt=""int"">0</Timestamp><DateUtc dt:dt=""string"">2021-05-04T12:54:39Z</DateUtc></StartTime><FrequencyChanges><FrequencyChange><Frequency dt:dt=""r8"">2435576</Frequency><Timestamp dt:dt=""r8"">57695471460</Timestamp><Current dt:dt=""r8"">0</Current><DateUtc dt:dt=""string"">2021-05-04T12:54:39Z</DateUtc></FrequencyChange></FrequencyChanges></Clock>\n";EXP2.2_290421-1015-1;60.024;1.0.0.367;1;Chronos;1861376075;Full;3.0.3.80;3.0.3.80;05/04/2021;04/05/2021 12:54;14:54:39;3.0.3.82;2;Chronos;;2;1;2;TESTVV;Generalbloc;;;;pretest;Chronos;25;5;VV_290421/905.png;7;1;25;5;blocVVstim;listVVTrial;;;;Chronos;0;;0;-1;632097;200;;0;0;1;5;Chronos;0;0;632297;300;5;757;633054;1;5;Chronos;0;0;632597;0;5;457;633054;;;;;;;;;;;;;;;;;;;
EXP2.2_290421;1015;1;Chronos;<ChronosDeviceInfo><FriendlyName>MyChronos</FriendlyName><DeviceIndex>1</DeviceIndex><SerialNumber>CHR-04301-1186</SerialNumber><EBNVersion>3.0.3.80</EBNVersion><FirmwareVersion>1.33</FirmwareVersion><APIVersion>1.33</APIVersion><USBHostControllerVersion>2.0</USBHostControllerVersion><USBConnectionRoute>USB#ROOT_HUB20#4&9bd2e8a&0#{f18a0e88-c30c-11d0-8815-00a0c906bed8} + USB#VID_8087&PID_0024#5&3026c139&0&1#{f18a0e88-c30c-11d0-8815-00a0c906bed8}(1) + VID_2266&PID_0007(7)</USBConnectionRoute></ChronosDeviceInfo>;"<?xml version=""1.0""?>\n<Clock xmlns:dt=""urn:schemas-microsoft-com:datatypes""><Description dt:dt=""string"">E-Prime Primary Realtime Clock</Description><StartTime><Timestamp dt:dt=""int"">0</Timestamp><DateUtc dt:dt=""string"">2021-05-04T12:54:39Z</DateUtc></StartTime><FrequencyChanges><FrequencyChange><Frequency dt:dt=""r8"">2435576</Frequency><Timestamp dt:dt=""r8"">57695471460</Timestamp><Current dt:dt=""r8"">0</Current><DateUtc dt:dt=""string"">2021-05-04T12:54:39Z</DateUtc></FrequencyChange></FrequencyChanges></Clock>\n";EXP2.2_290421-1015-1;60.024;1.0.0.367;1;Chronos;1861376075;Full;3.0.3.80;3.0.3.80;05/04/2021;04/05/2021 12:54;14:54:39;3.0.3.82;2;Chronos;;2;1;2;TESTVV;Generalbloc;;;;pretest;Chronos;26;15;VV_290421/900.png;6;1;26;0;blocVVstim;listVVTrial;;;;Chronos;0;;0;0;634580;199;;0;0;0;15;Chronos;1;-1;634779;300;5;740;635519;0;15;Chronos;1;0;635079;0;5;440;635519;;;;;;;;;;;;;;;;;;;
EXP2.2_290421;1015;1;Chronos;<ChronosDeviceInfo><FriendlyName>MyChronos</FriendlyName><DeviceIndex>1</DeviceIndex><SerialNumber>CHR-04301-1186</SerialNumber><EBNVersion>3.0.3.80</EBNVersion><FirmwareVersion>1.33</FirmwareVersion><APIVersion>1.33</APIVersion><USBHostControllerVersion>2.0</USBHostControllerVersion><USBConnectionRoute>USB#ROOT_HUB20#4&9bd2e8a&0#{f18a0e88-c30c-11d0-8815-00a0c906bed8} + USB#VID_8087&PID_0024#5&3026c139&0&1#{f18a0e88-c30c-11d0-8815-00a0c906bed8}(1) + VID_2266&PID_0007(7)</USBConnectionRoute></ChronosDeviceInfo>;"<?xml version=""1.0""?>\n<Clock xmlns:dt=""urn:schemas-microsoft-com:datatypes""><Description dt:dt=""string"">E-Prime Primary Realtime Clock</Description><StartTime><Timestamp dt:dt=""int"">0</Timestamp><DateUtc dt:dt=""string"">2021-05-04T12:54:39Z</DateUtc></StartTime><FrequencyChanges><FrequencyChange><Frequency dt:dt=""r8"">2435576</Frequency><Timestamp dt:dt=""r8"">57695471460</Timestamp><Current dt:dt=""r8"">0</Current><DateUtc dt:dt=""string"">2021-05-04T12:54:39Z</DateUtc></FrequencyChange></FrequencyChanges></Clock>\n";EXP2.2_290421-1015-1;60.024;1.0.0.367;1;Chronos;1861376075;Full;3.0.3.80;3.0.3.80;05/04/2021;04/05/2021 12:54;14:54:39;3.0.3.82;2;Chronos;;2;1;2;TESTVV;Generalbloc;;;;pretest;Chronos;27;1;VV_290421/885.png;3;1;27;-15;blocVVstim;listVVTrial;;;;Chronos;0;;0;-1;637045;200;;0;0;1;1;Chronos;0;0;637245;300;1;1025;638270;1;1;Chronos;0;0;637545;0;1;725;638270;;;;;;;;;;;;;;;;;;;
EXP2.2_290421;1015;1;Chronos;<ChronosDeviceInfo><FriendlyName>MyChronos</FriendlyName><DeviceIndex>1</DeviceIndex><SerialNumber>CHR-04301-1186</SerialNumber><EBNVersion>3.0.3.80</EBNVersion><FirmwareVersion>1.33</FirmwareVersion><APIVersion>1.33</APIVersion><USBHostControllerVersion>2.0</USBHostControllerVersion><USBConnectionRoute>USB#ROOT_HUB20#4&9bd2e8a&0#{f18a0e88-c30c-11d0-8815-00a0c906bed8} + USB#VID_8087&PID_0024#5&3026c139&0&1#{f18a0e88-c30c-11d0-8815-00a0c906bed8}(1) + VID_2266&PID_0007(7)</USBConnectionRoute></ChronosDeviceInfo>;"<?xml version=""1.0""?>\n<Clock xmlns:dt=""urn:schemas-microsoft-com:datatypes""><Description dt:dt=""string"">E-Prime Primary Realtime Clock</Description><StartTime><Timestamp dt:dt=""int"">0</Timestamp><DateUtc dt:dt=""string"">2021-05-04T12:54:39Z</DateUtc></StartTime><FrequencyChanges><FrequencyChange><Frequency dt:dt=""r8"">2435576</Frequency><Timestamp dt:dt=""r8"">57695471460</Timestamp><Current dt:dt=""r8"">0</Current><DateUtc dt:dt=""string"">2021-05-04T12:54:39Z</DateUtc></FrequencyChange></FrequencyChanges></Clock>\n";EXP2.2_290421-1015-1;60.024;1.0.0.367;1;Chronos;1861376075;Full;3.0.3.80;3.0.3.80;05/04/2021;04/05/2021 12:54;14:54:39;3.0.3.82;2;Chronos;;2;1;2;TESTVV;Generalbloc;;;;pretest;Chronos;28;5;VV_290421/925.png;11;1;28;25;blocVVstim;listVVTrial;;;;Chronos;0;;0;-1;639794;200;;0;0;1;5;Chronos;0;0;639994;300;5;396;640390;1;5;Chronos;0;0;640294;0;5;96;640390;;;;;;;;;;;;;;;;;;;
EXP2.2_290421;1015;1;Chronos;<ChronosDeviceInfo><FriendlyName>MyChronos</FriendlyName><DeviceIndex>1</DeviceIndex><SerialNumber>CHR-04301-1186</SerialNumber><EBNVersion>3.0.3.80</EBNVersion><FirmwareVersion>1.33</FirmwareVersion><APIVersion>1.33</APIVersion><USBHostControllerVersion>2.0</USBHostControllerVersion><USBConnectionRoute>USB#ROOT_HUB20#4&9bd2e8a&0#{f18a0e88-c30c-11d0-8815-00a0c906bed8} + USB#VID_8087&PID_0024#5&3026c139&0&1#{f18a0e88-c30c-11d0-8815-00a0c906bed8}(1) + VID_2266&PID_0007(7)</USBConnectionRoute></ChronosDeviceInfo>;"<?xml version=""1.0""?>\n<Clock xmlns:dt=""urn:schemas-microsoft-com:datatypes""><Description dt:dt=""string"">E-Prime Primary Realtime Clock</Description><StartTime><Timestamp dt:dt=""int"">0</Timestamp><DateUtc dt:dt=""string"">2021-05-04T12:54:39Z</DateUtc></StartTime><FrequencyChanges><FrequencyChange><Frequency dt:dt=""r8"">2435576</Frequency><Timestamp dt:dt=""r8"">57695471460</Timestamp><Current dt:dt=""r8"">0</Current><DateUtc dt:dt=""string"">2021-05-04T12:54:39Z</DateUtc></FrequencyChange></FrequencyChanges></Clock>\n";EXP2.2_290421-1015-1;60.024;1.0.0.367;1;Chronos;1861376075;Full;3.0.3.80;3.0.3.80;05/04/2021;04/05/2021 12:54;14:54:39;3.0.3.82;2;Chronos;;2;1;2;TESTVV;Generalbloc;;;;pretest;Chronos;29;5;VV_290421/920.png;10;1;29;20;blocVVstim;listVVTrial;;;;Chronos;0;;0;-1;641910;200;;0;0;1;5;Chronos;0;0;642110;300;5;976;643086;1;5;Chronos;0;0;642410;0;5;676;643086;;;;;;;;;;;;;;;;;;;
EXP2.2_290421;1015;1;Chronos;<ChronosDeviceInfo><FriendlyName>MyChronos</FriendlyName><DeviceIndex>1</DeviceIndex><SerialNumber>CHR-04301-1186</SerialNumber><EBNVersion>3.0.3.80</EBNVersion><FirmwareVersion>1.33</FirmwareVersion><APIVersion>1.33</APIVersion><USBHostControllerVersion>2.0</USBHostControllerVersion><USBConnectionRoute>USB#ROOT_HUB20#4&9bd2e8a&0#{f18a0e88-c30c-11d0-8815-00a0c906bed8} + USB#VID_8087&PID_0024#5&3026c139&0&1#{f18a0e88-c30c-11d0-8815-00a0c906bed8}(1) + VID_2266&PID_0007(7)</USBConnectionRoute></ChronosDeviceInfo>;"<?xml version=""1.0""?>\n<Clock xmlns:dt=""urn:schemas-microsoft-com:datatypes""><Description dt:dt=""string"">E-Prime Primary Realtime Clock</Description><StartTime><Timestamp dt:dt=""int"">0</Timestamp><DateUtc dt:dt=""string"">2021-05-04T12:54:39Z</DateUtc></StartTime><FrequencyChanges><FrequencyChange><Frequency dt:dt=""r8"">2435576</Frequency><Timestamp dt:dt=""r8"">57695471460</Timestamp><Current dt:dt=""r8"">0</Current><DateUtc dt:dt=""string"">2021-05-04T12:54:39Z</DateUtc></FrequencyChange></FrequencyChanges></Clock>\n";EXP2.2_290421-1015-1;60.024;1.0.0.367;1;Chronos;1861376075;Full;3.0.3.80;3.0.3.80;05/04/2021;04/05/2021 12:54;14:54:39;3.0.3.82;2;Chronos;;2;1;2;TESTVV;Generalbloc;;;;pretest;Chronos;30;15;VV_290421/900.png;6;1;30;0;blocVVstim;listVVTrial;;;;Chronos;0;;0;-1;644609;200;;0;0;0;15;Chronos;0;0;644809;300;5;525;645334;0;15;Chronos;0;0;645109;0;5;225;645334;;;;;;;;;;;;;;;;;;;
EXP2.2_290421;1015;1;Chronos;<ChronosDeviceInfo><FriendlyName>MyChronos</FriendlyName><DeviceIndex>1</DeviceIndex><SerialNumber>CHR-04301-1186</SerialNumber><EBNVersion>3.0.3.80</EBNVersion><FirmwareVersion>1.33</FirmwareVersion><APIVersion>1.33</APIVersion><USBHostControllerVersion>2.0</USBHostControllerVersion><USBConnectionRoute>USB#ROOT_HUB20#4&9bd2e8a&0#{f18a0e88-c30c-11d0-8815-00a0c906bed8} + USB#VID_8087&PID_0024#5&3026c139&0&1#{f18a0e88-c30c-11d0-8815-00a0c906bed8}(1) + VID_2266&PID_0007(7)</USBConnectionRoute></ChronosDeviceInfo>;"<?xml version=""1.0""?>\n<Clock xmlns:dt=""urn:schemas-microsoft-com:datatypes""><Description dt:dt=""string"">E-Prime Primary Realtime Clock</Description><StartTime><Timestamp dt:dt=""int"">0</Timestamp><DateUtc dt:dt=""string"">2021-05-04T12:54:39Z</DateUtc></StartTime><FrequencyChanges><FrequencyChange><Frequency dt:dt=""r8"">2435576</Frequency><Timestamp dt:dt=""r8"">57695471460</Timestamp><Current dt:dt=""r8"">0</Current><DateUtc dt:dt=""string"">2021-05-04T12:54:39Z</DateUtc></FrequencyChange></FrequencyChanges></Clock>\n";EXP2.2_290421-1015-1;60.024;1.0.0.367;1;Chronos;1861376075;Full;3.0.3.80;3.0.3.80;05/04/2021;04/05/2021 12:54;14:54:39;3.0.3.82;2;Chronos;;2;1;2;TESTVV;Generalbloc;;;;pretest;Chronos;31;5;VV_290421/910.png;8;1;31;10;blocVVstim;listVVTrial;;;;Chronos;0;;0;-1;646858;200;;0;0;1;5;Chronos;0;0;647058;300;5;451;647509;1;5;Chronos;0;0;647358;0;5;151;647509;;;;;;;;;;;;;;;;;;;
EXP2.2_290421;1015;1;Chronos;<ChronosDeviceInfo><FriendlyName>MyChronos</FriendlyName><DeviceIndex>1</DeviceIndex><SerialNumber>CHR-04301-1186</SerialNumber><EBNVersion>3.0.3.80</EBNVersion><FirmwareVersion>1.33</FirmwareVersion><APIVersion>1.33</APIVersion><USBHostControllerVersion>2.0</USBHostControllerVersion><USBConnectionRoute>USB#ROOT_HUB20#4&9bd2e8a&0#{f18a0e88-c30c-11d0-8815-00a0c906bed8} + USB#VID_8087&PID_0024#5&3026c139&0&1#{f18a0e88-c30c-11d0-8815-00a0c906bed8}(1) + VID_2266&PID_0007(7)</USBConnectionRoute></ChronosDeviceInfo>;"<?xml version=""1.0""?>\n<Clock xmlns:dt=""urn:schemas-microsoft-com:datatypes""><Description dt:dt=""string"">E-Prime Primary Realtime Clock</Description><StartTime><Timestamp dt:dt=""int"">0</Timestamp><DateUtc dt:dt=""string"">2021-05-04T12:54:39Z</DateUtc></StartTime><FrequencyChanges><FrequencyChange><Frequency dt:dt=""r8"">2435576</Frequency><Timestamp dt:dt=""r8"">57695471460</Timestamp><Current dt:dt=""r8"">0</Current><DateUtc dt:dt=""string"">2021-05-04T12:54:39Z</DateUtc></FrequencyChange></FrequencyChanges></Clock>\n";EXP2.2_290421-1015-1;60.024;1.0.0.367;1;Chronos;1861376075;Full;3.0.3.80;3.0.3.80;05/04/2021;04/05/2021 12:54;14:54:39;3.0.3.82;2;Chronos;;2;1;2;TESTVV;Generalbloc;;;;pretest;Chronos;32;5;VV_290421/905.png;7;1;32;5;blocVVstim;listVVTrial;;;;Chronos;0;;0;0;649024;200;;0;0;1;5;Chronos;0;0;649224;300;5;441;649665;1;5;Chronos;0;0;649524;0;5;141;649665;;;;;;;;;;;;;;;;;;;
EXP2.2_290421;1015;1;Chronos;<ChronosDeviceInfo><FriendlyName>MyChronos</FriendlyName><DeviceIndex>1</DeviceIndex><SerialNumber>CHR-04301-1186</SerialNumber><EBNVersion>3.0.3.80</EBNVersion><FirmwareVersion>1.33</FirmwareVersion><APIVersion>1.33</APIVersion><USBHostControllerVersion>2.0</USBHostControllerVersion><USBConnectionRoute>USB#ROOT_HUB20#4&9bd2e8a&0#{f18a0e88-c30c-11d0-8815-00a0c906bed8} + USB#VID_8087&PID_0024#5&3026c139&0&1#{f18a0e88-c30c-11d0-8815-00a0c906bed8}(1) + VID_2266&PID_0007(7)</USBConnectionRoute></ChronosDeviceInfo>;"<?xml version=""1.0""?>\n<Clock xmlns:dt=""urn:schemas-microsoft-com:datatypes""><Description dt:dt=""string"">E-Prime Primary Realtime Clock</Description><StartTime><Timestamp dt:dt=""int"">0</Timestamp><DateUtc dt:dt=""string"">2021-05-04T12:54:39Z</DateUtc></StartTime><FrequencyChanges><FrequencyChange><Frequency dt:dt=""r8"">2435576</Frequency><Timestamp dt:dt=""r8"">57695471460</Timestamp><Current dt:dt=""r8"">0</Current><DateUtc dt:dt=""string"">2021-05-04T12:54:39Z</DateUtc></FrequencyChange></FrequencyChanges></Clock>\n";EXP2.2_290421-1015-1;60.024;1.0.0.367;1;Chronos;1861376075;Full;3.0.3.80;3.0.3.80;05/04/2021;04/05/2021 12:54;14:54:39;3.0.3.82;2;Chronos;;2;1;2;TESTVV;Generalbloc;;;;pretest;Chronos;33;1;VV_290421/875.png;1;1;33;-25;blocVVstim;listVVTrial;;;;Chronos;0;;0;0;651190;200;;0;0;1;1;Chronos;0;0;651390;300;1;450;651840;1;1;Chronos;0;0;651690;0;1;150;651840;;;;;;;;;;;;;;;;;;;
EXP2.2_290421;1015;1;Chronos;<ChronosDeviceInfo><FriendlyName>MyChronos</FriendlyName><DeviceIndex>1</DeviceIndex><SerialNumber>CHR-04301-1186</SerialNumber><EBNVersion>3.0.3.80</EBNVersion><FirmwareVersion>1.33</FirmwareVersion><APIVersion>1.33</APIVersion><USBHostControllerVersion>2.0</USBHostControllerVersion><USBConnectionRoute>USB#ROOT_HUB20#4&9bd2e8a&0#{f18a0e88-c30c-11d0-8815-00a0c906bed8} + USB#VID_8087&PID_0024#5&3026c139&0&1#{f18a0e88-c30c-11d0-8815-00a0c906bed8}(1) + VID_2266&PID_0007(7)</USBConnectionRoute></ChronosDeviceInfo>;"<?xml version=""1.0""?>\n<Clock xmlns:dt=""urn:schemas-microsoft-com:datatypes""><Description dt:dt=""string"">E-Prime Primary Realtime Clock</Description><StartTime><Timestamp dt:dt=""int"">0</Timestamp><DateUtc dt:dt=""string"">2021-05-04T12:54:39Z</DateUtc></StartTime><FrequencyChanges><FrequencyChange><Frequency dt:dt=""r8"">2435576</Frequency><Timestamp dt:dt=""r8"">57695471460</Timestamp><Current dt:dt=""r8"">0</Current><DateUtc dt:dt=""string"">2021-05-04T12:54:39Z</DateUtc></FrequencyChange></FrequencyChanges></Clock>\n";EXP2.2_290421-1015-1;60.024;1.0.0.367;1;Chronos;1861376075;Full;3.0.3.80;3.0.3.80;05/04/2021;04/05/2021 12:54;14:54:39;3.0.3.82;2;Chronos;;2;1;2;TESTVV;Generalbloc;;;;pretest;Chronos;34;1;VV_290421/880.png;2;1;34;-20;blocVVstim;listVVTrial;;;;Chronos;0;;0;0;653356;199;;0;0;1;1;Chronos;1;-1;653555;300;1;454;654009;1;1;Chronos;0;0;653855;0;1;154;654009;;;;;;;;;;;;;;;;;;;
EXP2.2_290421;1015;1;Chronos;<ChronosDeviceInfo><FriendlyName>MyChronos</FriendlyName><DeviceIndex>1</DeviceIndex><SerialNumber>CHR-04301-1186</SerialNumber><EBNVersion>3.0.3.80</EBNVersion><FirmwareVersion>1.33</FirmwareVersion><APIVersion>1.33</APIVersion><USBHostControllerVersion>2.0</USBHostControllerVersion><USBConnectionRoute>USB#ROOT_HUB20#4&9bd2e8a&0#{f18a0e88-c30c-11d0-8815-00a0c906bed8} + USB#VID_8087&PID_0024#5&3026c139&0&1#{f18a0e88-c30c-11d0-8815-00a0c906bed8}(1) + VID_2266&PID_0007(7)</USBConnectionRoute></ChronosDeviceInfo>;"<?xml version=""1.0""?>\n<Clock xmlns:dt=""urn:schemas-microsoft-com:datatypes""><Description dt:dt=""string"">E-Prime Primary Realtime Clock</Description><StartTime><Timestamp dt:dt=""int"">0</Timestamp><DateUtc dt:dt=""string"">2021-05-04T12:54:39Z</DateUtc></StartTime><FrequencyChanges><FrequencyChange><Frequency dt:dt=""r8"">2435576</Frequency><Timestamp dt:dt=""r8"">57695471460</Timestamp><Current dt:dt=""r8"">0</Current><DateUtc dt:dt=""string"">2021-05-04T12:54:39Z</DateUtc></FrequencyChange></FrequencyChanges></Clock>\n";EXP2.2_290421-1015-1;60.024;1.0.0.367;1;Chronos;1861376075;Full;3.0.3.80;3.0.3.80;05/04/2021;04/05/2021 12:54;14:54:39;3.0.3.82;2;Chronos;;2;1;2;TESTVV;Generalbloc;;;;pretest;Chronos;35;1;VV_290421/890.png;4;1;35;-10;blocVVstim;listVVTrial;;;;Chronos;0;;0;-1;655538;200;;0;0;1;1;Chronos;0;0;655738;300;1;726;656464;1;1;Chronos;0;0;656038;0;1;426;656464;;;;;;;;;;;;;;;;;;;
EXP2.2_290421;1015;1;Chronos;<ChronosDeviceInfo><FriendlyName>MyChronos</FriendlyName><DeviceIndex>1</DeviceIndex><SerialNumber>CHR-04301-1186</SerialNumber><EBNVersion>3.0.3.80</EBNVersion><FirmwareVersion>1.33</FirmwareVersion><APIVersion>1.33</APIVersion><USBHostControllerVersion>2.0</USBHostControllerVersion><USBConnectionRoute>USB#ROOT_HUB20#4&9bd2e8a&0#{f18a0e88-c30c-11d0-8815-00a0c906bed8} + USB#VID_8087&PID_0024#5&3026c139&0&1#{f18a0e88-c30c-11d0-8815-00a0c906bed8}(1) + VID_2266&PID_0007(7)</USBConnectionRoute></ChronosDeviceInfo>;"<?xml version=""1.0""?>\n<Clock xmlns:dt=""urn:schemas-microsoft-com:datatypes""><Description dt:dt=""string"">E-Prime Primary Realtime Clock</Description><StartTime><Timestamp dt:dt=""int"">0</Timestamp><DateUtc dt:dt=""string"">2021-05-04T12:54:39Z</DateUtc></StartTime><FrequencyChanges><FrequencyChange><Frequency dt:dt=""r8"">2435576</Frequency><Timestamp dt:dt=""r8"">57695471460</Timestamp><Current dt:dt=""r8"">0</Current><DateUtc dt:dt=""string"">2021-05-04T12:54:39Z</DateUtc></FrequencyChange></FrequencyChanges></Clock>\n";EXP2.2_290421-1015-1;60.024;1.0.0.367;1;Chronos;1861376075;Full;3.0.3.80;3.0.3.80;05/04/2021;04/05/2021 12:54;14:54:39;3.0.3.82;2;Chronos;;2;1;2;TESTVV;Generalbloc;;;;pretest;Chronos;36;5;VV_290421/915.png;9;1;36;15;blocVVstim;listVVTrial;;;;Chronos;0;;0;-1;657987;200;;0;0;1;5;Chronos;0;0;658187;300;5;575;658762;1;5;Chronos;0;0;658487;0;5;275;658762;;;;;;;;;;;;;;;;;;;
EXP2.2_290421;1015;1;Chronos;<ChronosDeviceInfo><FriendlyName>MyChronos</FriendlyName><DeviceIndex>1</DeviceIndex><SerialNumber>CHR-04301-1186</SerialNumber><EBNVersion>3.0.3.80</EBNVersion><FirmwareVersion>1.33</FirmwareVersion><APIVersion>1.33</APIVersion><USBHostControllerVersion>2.0</USBHostControllerVersion><USBConnectionRoute>USB#ROOT_HUB20#4&9bd2e8a&0#{f18a0e88-c30c-11d0-8815-00a0c906bed8} + USB#VID_8087&PID_0024#5&3026c139&0&1#{f18a0e88-c30c-11d0-8815-00a0c906bed8}(1) + VID_2266&PID_0007(7)</USBConnectionRoute></ChronosDeviceInfo>;"<?xml version=""1.0""?>\n<Clock xmlns:dt=""urn:schemas-microsoft-com:datatypes""><Description dt:dt=""string"">E-Prime Primary Realtime Clock</Description><StartTime><Timestamp dt:dt=""int"">0</Timestamp><DateUtc dt:dt=""string"">2021-05-04T12:54:39Z</DateUtc></StartTime><FrequencyChanges><FrequencyChange><Frequency dt:dt=""r8"">2435576</Frequency><Timestamp dt:dt=""r8"">57695471460</Timestamp><Current dt:dt=""r8"">0</Current><DateUtc dt:dt=""string"">2021-05-04T12:54:39Z</DateUtc></FrequencyChange></FrequencyChanges></Clock>\n";EXP2.2_290421-1015-1;60.024;1.0.0.367;1;Chronos;1861376075;Full;3.0.3.80;3.0.3.80;05/04/2021;04/05/2021 12:54;14:54:39;3.0.3.82;2;Chronos;;2;1;2;TESTVV;Generalbloc;;;;pretest;Chronos;37;1;VV_290421/875.png;1;1;37;-25;blocVVstim;listVVTrial;;;;Chronos;0;;0;-1;660286;200;;0;0;1;1;Chronos;0;0;660486;300;1;469;660955;1;1;Chronos;0;0;660786;0;1;169;660955;;;;;;;;;;;;;;;;;;;
EXP2.2_290421;1015;1;Chronos;<ChronosDeviceInfo><FriendlyName>MyChronos</FriendlyName><DeviceIndex>1</DeviceIndex><SerialNumber>CHR-04301-1186</SerialNumber><EBNVersion>3.0.3.80</EBNVersion><FirmwareVersion>1.33</FirmwareVersion><APIVersion>1.33</APIVersion><USBHostControllerVersion>2.0</USBHostControllerVersion><USBConnectionRoute>USB#ROOT_HUB20#4&9bd2e8a&0#{f18a0e88-c30c-11d0-8815-00a0c906bed8} + USB#VID_8087&PID_0024#5&3026c139&0&1#{f18a0e88-c30c-11d0-8815-00a0c906bed8}(1) + VID_2266&PID_0007(7)</USBConnectionRoute></ChronosDeviceInfo>;"<?xml version=""1.0""?>\n<Clock xmlns:dt=""urn:schemas-microsoft-com:datatypes""><Description dt:dt=""string"">E-Prime Primary Realtime Clock</Description><StartTime><Timestamp dt:dt=""int"">0</Timestamp><DateUtc dt:dt=""string"">2021-05-04T12:54:39Z</DateUtc></StartTime><FrequencyChanges><FrequencyChange><Frequency dt:dt=""r8"">2435576</Frequency><Timestamp dt:dt=""r8"">57695471460</Timestamp><Current dt:dt=""r8"">0</Current><DateUtc dt:dt=""string"">2021-05-04T12:54:39Z</DateUtc></FrequencyChange></FrequencyChanges></Clock>\n";EXP2.2_290421-1015-1;60.024;1.0.0.367;1;Chronos;1861376075;Full;3.0.3.80;3.0.3.80;05/04/2021;04/05/2021 12:54;14:54:39;3.0.3.82;2;Chronos;;2;1;2;TESTVV;Generalbloc;;;;pretest;Chronos;38;5;VV_290421/905.png;7;1;38;5;blocVVstim;listVVTrial;;;;Chronos;0;;0;0;662469;200;;0;0;1;5;Chronos;0;0;662669;299;5;606;663275;1;5;Chronos;1;-1;662968;0;5;307;663275;;;;;;;;;;;;;;;;;;;
EXP2.2_290421;1015;1;Chronos;<ChronosDeviceInfo><FriendlyName>MyChronos</FriendlyName><DeviceIndex>1</DeviceIndex><SerialNumber>CHR-04301-1186</SerialNumber><EBNVersion>3.0.3.80</EBNVersion><FirmwareVersion>1.33</FirmwareVersion><APIVersion>1.33</APIVersion><USBHostControllerVersion>2.0</USBHostControllerVersion><USBConnectionRoute>USB#ROOT_HUB20#4&9bd2e8a&0#{f18a0e88-c30c-11d0-8815-00a0c906bed8} + USB#VID_8087&PID_0024#5&3026c139&0&1#{f18a0e88-c30c-11d0-8815-00a0c906bed8}(1) + VID_2266&PID_0007(7)</USBConnectionRoute></ChronosDeviceInfo>;"<?xml version=""1.0""?>\n<Clock xmlns:dt=""urn:schemas-microsoft-com:datatypes""><Description dt:dt=""string"">E-Prime Primary Realtime Clock</Description><StartTime><Timestamp dt:dt=""int"">0</Timestamp><DateUtc dt:dt=""string"">2021-05-04T12:54:39Z</DateUtc></StartTime><FrequencyChanges><FrequencyChange><Frequency dt:dt=""r8"">2435576</Frequency><Timestamp dt:dt=""r8"">57695471460</Timestamp><Current dt:dt=""r8"">0</Current><DateUtc dt:dt=""string"">2021-05-04T12:54:39Z</DateUtc></FrequencyChange></FrequencyChanges></Clock>\n";EXP2.2_290421-1015-1;60.024;1.0.0.367;1;Chronos;1861376075;Full;3.0.3.80;3.0.3.80;05/04/2021;04/05/2021 12:54;14:54:39;3.0.3.82;2;Chronos;;2;1;2;TESTVV;Generalbloc;;;;pretest;Chronos;39;5;VV_290421/915.png;9;1;39;15;blocVVstim;listVVTrial;;;;Chronos;0;;0;-1;664801;200;;0;0;1;5;Chronos;0;0;665001;300;5;317;665318;1;5;Chronos;0;0;665301;0;5;17;665318;;;;;;;;;;;;;;;;;;;
EXP2.2_290421;1015;1;Chronos;<ChronosDeviceInfo><FriendlyName>MyChronos</FriendlyName><DeviceIndex>1</DeviceIndex><SerialNumber>CHR-04301-1186</SerialNumber><EBNVersion>3.0.3.80</EBNVersion><FirmwareVersion>1.33</FirmwareVersion><APIVersion>1.33</APIVersion><USBHostControllerVersion>2.0</USBHostControllerVersion><USBConnectionRoute>USB#ROOT_HUB20#4&9bd2e8a&0#{f18a0e88-c30c-11d0-8815-00a0c906bed8} + USB#VID_8087&PID_0024#5&3026c139&0&1#{f18a0e88-c30c-11d0-8815-00a0c906bed8}(1) + VID_2266&PID_0007(7)</USBConnectionRoute></ChronosDeviceInfo>;"<?xml version=""1.0""?>\n<Clock xmlns:dt=""urn:schemas-microsoft-com:datatypes""><Description dt:dt=""string"">E-Prime Primary Realtime Clock</Description><StartTime><Timestamp dt:dt=""int"">0</Timestamp><DateUtc dt:dt=""string"">2021-05-04T12:54:39Z</DateUtc></StartTime><FrequencyChanges><FrequencyChange><Frequency dt:dt=""r8"">2435576</Frequency><Timestamp dt:dt=""r8"">57695471460</Timestamp><Current dt:dt=""r8"">0</Current><DateUtc dt:dt=""string"">2021-05-04T12:54:39Z</DateUtc></FrequencyChange></FrequencyChanges></Clock>\n";EXP2.2_290421-1015-1;60.024;1.0.0.367;1;Chronos;1861376075;Full;3.0.3.80;3.0.3.80;05/04/2021;04/05/2021 12:54;14:54:39;3.0.3.82;2;Chronos;;2;1;2;TESTVV;Generalbloc;;;;pretest;Chronos;40;1;VV_290421/895.png;5;1;40;-5;blocVVstim;listVVTrial;;;;Chronos;0;;0;0;666834;200;;0;0;1;1;Chronos;0;0;667034;299;1;1261;668295;1;1;Chronos;1;-1;667333;0;1;962;668295;;;;;;;;;;;;;;;;;;;
EXP2.2_290421;1015;1;Chronos;<ChronosDeviceInfo><FriendlyName>MyChronos</FriendlyName><DeviceIndex>1</DeviceIndex><SerialNumber>CHR-04301-1186</SerialNumber><EBNVersion>3.0.3.80</EBNVersion><FirmwareVersion>1.33</FirmwareVersion><APIVersion>1.33</APIVersion><USBHostControllerVersion>2.0</USBHostControllerVersion><USBConnectionRoute>USB#ROOT_HUB20#4&9bd2e8a&0#{f18a0e88-c30c-11d0-8815-00a0c906bed8} + USB#VID_8087&PID_0024#5&3026c139&0&1#{f18a0e88-c30c-11d0-8815-00a0c906bed8}(1) + VID_2266&PID_0007(7)</USBConnectionRoute></ChronosDeviceInfo>;"<?xml version=""1.0""?>\n<Clock xmlns:dt=""urn:schemas-microsoft-com:datatypes""><Description dt:dt=""string"">E-Prime Primary Realtime Clock</Description><StartTime><Timestamp dt:dt=""int"">0</Timestamp><DateUtc dt:dt=""string"">2021-05-04T12:54:39Z</DateUtc></StartTime><FrequencyChanges><FrequencyChange><Frequency dt:dt=""r8"">2435576</Frequency><Timestamp dt:dt=""r8"">57695471460</Timestamp><Current dt:dt=""r8"">0</Current><DateUtc dt:dt=""string"">2021-05-04T12:54:39Z</DateUtc></FrequencyChange></FrequencyChanges></Clock>\n";EXP2.2_290421-1015-1;60.024;1.0.0.367;1;Chronos;1861376075;Full;3.0.3.80;3.0.3.80;05/04/2021;04/05/2021 12:54;14:54:39;3.0.3.82;2;Chronos;;2;1;2;TESTVV;Generalbloc;;;;pretest;Chronos;41;5;VV_290421/925.png;11;1;41;25;blocVVstim;listVVTrial;;;;Chronos;0;;0;0;669816;200;;0;0;1;5;Chronos;0;0;670016;300;5;601;670617;1;5;Chronos;0;0;670316;0;5;301;670617;;;;;;;;;;;;;;;;;;;
EXP2.2_290421;1015;1;Chronos;<ChronosDeviceInfo><FriendlyName>MyChronos</FriendlyName><DeviceIndex>1</DeviceIndex><SerialNumber>CHR-04301-1186</SerialNumber><EBNVersion>3.0.3.80</EBNVersion><FirmwareVersion>1.33</FirmwareVersion><APIVersion>1.33</APIVersion><USBHostControllerVersion>2.0</USBHostControllerVersion><USBConnectionRoute>USB#ROOT_HUB20#4&9bd2e8a&0#{f18a0e88-c30c-11d0-8815-00a0c906bed8} + USB#VID_8087&PID_0024#5&3026c139&0&1#{f18a0e88-c30c-11d0-8815-00a0c906bed8}(1) + VID_2266&PID_0007(7)</USBConnectionRoute></ChronosDeviceInfo>;"<?xml version=""1.0""?>\n<Clock xmlns:dt=""urn:schemas-microsoft-com:datatypes""><Description dt:dt=""string"">E-Prime Primary Realtime Clock</Description><StartTime><Timestamp dt:dt=""int"">0</Timestamp><DateUtc dt:dt=""string"">2021-05-04T12:54:39Z</DateUtc></StartTime><FrequencyChanges><FrequencyChange><Frequency dt:dt=""r8"">2435576</Frequency><Timestamp dt:dt=""r8"">57695471460</Timestamp><Current dt:dt=""r8"">0</Current><DateUtc dt:dt=""string"">2021-05-04T12:54:39Z</DateUtc></FrequencyChange></FrequencyChanges></Clock>\n";EXP2.2_290421-1015-1;60.024;1.0.0.367;1;Chronos;1861376075;Full;3.0.3.80;3.0.3.80;05/04/2021;04/05/2021 12:54;14:54:39;3.0.3.82;2;Chronos;;2;1;2;TESTVV;Generalbloc;;;;pretest;Chronos;42;1;VV_290421/885.png;3;1;42;-15;blocVVstim;listVVTrial;;;;Chronos;0;;0;0;672132;199;;0;0;1;1;Chronos;1;-1;672331;300;1;1059;673390;1;1;Chronos;1;0;672631;0;1;759;673390;;;;;;;;;;;;;;;;;;;
EXP2.2_290421;1015;1;Chronos;<ChronosDeviceInfo><FriendlyName>MyChronos</FriendlyName><DeviceIndex>1</DeviceIndex><SerialNumber>CHR-04301-1186</SerialNumber><EBNVersion>3.0.3.80</EBNVersion><FirmwareVersion>1.33</FirmwareVersion><APIVersion>1.33</APIVersion><USBHostControllerVersion>2.0</USBHostControllerVersion><USBConnectionRoute>USB#ROOT_HUB20#4&9bd2e8a&0#{f18a0e88-c30c-11d0-8815-00a0c906bed8} + USB#VID_8087&PID_0024#5&3026c139&0&1#{f18a0e88-c30c-11d0-8815-00a0c906bed8}(1) + VID_2266&PID_0007(7)</USBConnectionRoute></ChronosDeviceInfo>;"<?xml version=""1.0""?>\n<Clock xmlns:dt=""urn:schemas-microsoft-com:datatypes""><Description dt:dt=""string"">E-Prime Primary Realtime Clock</Description><StartTime><Timestamp dt:dt=""int"">0</Timestamp><DateUtc dt:dt=""string"">2021-05-04T12:54:39Z</DateUtc></StartTime><FrequencyChanges><FrequencyChange><Frequency dt:dt=""r8"">2435576</Frequency><Timestamp dt:dt=""r8"">57695471460</Timestamp><Current dt:dt=""r8"">0</Current><DateUtc dt:dt=""string"">2021-05-04T12:54:39Z</DateUtc></FrequencyChange></FrequencyChanges></Clock>\n";EXP2.2_290421-1015-1;60.024;1.0.0.367;1;Chronos;1861376075;Full;3.0.3.80;3.0.3.80;05/04/2021;04/05/2021 12:54;14:54:39;3.0.3.82;2;Chronos;;2;1;2;TESTVV;Generalbloc;;;;pretest;Chronos;43;5;VV_290421/925.png;11;1;43;25;blocVVstim;listVVTrial;;;;Chronos;0;;0;0;674914;200;;0;0;1;5;Chronos;0;0;675114;300;5;455;675569;1;5;Chronos;0;0;675414;0;5;155;675569;;;;;;;;;;;;;;;;;;;
EXP2.2_290421;1015;1;Chronos;<ChronosDeviceInfo><FriendlyName>MyChronos</FriendlyName><DeviceIndex>1</DeviceIndex><SerialNumber>CHR-04301-1186</SerialNumber><EBNVersion>3.0.3.80</EBNVersion><FirmwareVersion>1.33</FirmwareVersion><APIVersion>1.33</APIVersion><USBHostControllerVersion>2.0</USBHostControllerVersion><USBConnectionRoute>USB#ROOT_HUB20#4&9bd2e8a&0#{f18a0e88-c30c-11d0-8815-00a0c906bed8} + USB#VID_8087&PID_0024#5&3026c139&0&1#{f18a0e88-c30c-11d0-8815-00a0c906bed8}(1) + VID_2266&PID_0007(7)</USBConnectionRoute></ChronosDeviceInfo>;"<?xml version=""1.0""?>\n<Clock xmlns:dt=""urn:schemas-microsoft-com:datatypes""><Description dt:dt=""string"">E-Prime Primary Realtime Clock</Description><StartTime><Timestamp dt:dt=""int"">0</Timestamp><DateUtc dt:dt=""string"">2021-05-04T12:54:39Z</DateUtc></StartTime><FrequencyChanges><FrequencyChange><Frequency dt:dt=""r8"">2435576</Frequency><Timestamp dt:dt=""r8"">57695471460</Timestamp><Current dt:dt=""r8"">0</Current><DateUtc dt:dt=""string"">2021-05-04T12:54:39Z</DateUtc></FrequencyChange></FrequencyChanges></Clock>\n";EXP2.2_290421-1015-1;60.024;1.0.0.367;1;Chronos;1861376075;Full;3.0.3.80;3.0.3.80;05/04/2021;04/05/2021 12:54;14:54:39;3.0.3.82;2;Chronos;;2;1;2;TESTVV;Generalbloc;;;;pretest;Chronos;44;5;VV_290421/910.png;8;1;44;10;blocVVstim;listVVTrial;;;;Chronos;0;;0;-1;677096;200;;0;0;1;5;Chronos;0;0;677296;300;5;443;677739;1;5;Chronos;0;0;677596;0;5;143;677739;;;;;;;;;;;;;;;;;;;
EXP2.2_290421;1015;1;Chronos;<ChronosDeviceInfo><FriendlyName>MyChronos</FriendlyName><DeviceIndex>1</DeviceIndex><SerialNumber>CHR-04301-1186</SerialNumber><EBNVersion>3.0.3.80</EBNVersion><FirmwareVersion>1.33</FirmwareVersion><APIVersion>1.33</APIVersion><USBHostControllerVersion>2.0</USBHostControllerVersion><USBConnectionRoute>USB#ROOT_HUB20#4&9bd2e8a&0#{f18a0e88-c30c-11d0-8815-00a0c906bed8} + USB#VID_8087&PID_0024#5&3026c139&0&1#{f18a0e88-c30c-11d0-8815-00a0c906bed8}(1) + VID_2266&PID_0007(7)</USBConnectionRoute></ChronosDeviceInfo>;"<?xml version=""1.0""?>\n<Clock xmlns:dt=""urn:schemas-microsoft-com:datatypes""><Description dt:dt=""string"">E-Prime Primary Realtime Clock</Description><StartTime><Timestamp dt:dt=""int"">0</Timestamp><DateUtc dt:dt=""string"">2021-05-04T12:54:39Z</DateUtc></StartTime><FrequencyChanges><FrequencyChange><Frequency dt:dt=""r8"">2435576</Frequency><Timestamp dt:dt=""r8"">57695471460</Timestamp><Current dt:dt=""r8"">0</Current><DateUtc dt:dt=""string"">2021-05-04T12:54:39Z</DateUtc></FrequencyChange></FrequencyChanges></Clock>\n";EXP2.2_290421-1015-1;60.024;1.0.0.367;1;Chronos;1861376075;Full;3.0.3.80;3.0.3.80;05/04/2021;04/05/2021 12:54;14:54:39;3.0.3.82;2;Chronos;;2;1;2;TESTVV;Generalbloc;;;;pretest;Chronos;45;1;VV_290421/885.png;3;1;45;-15;blocVVstim;listVVTrial;;;;Chronos;0;;0;-1;679262;200;;0;0;1;1;Chronos;0;0;679462;300;1;1076;680538;1;1;Chronos;0;0;679762;0;1;776;680538;;;;;;;;;;;;;;;;;;;
EXP2.2_290421;1015;1;Chronos;<ChronosDeviceInfo><FriendlyName>MyChronos</FriendlyName><DeviceIndex>1</DeviceIndex><SerialNumber>CHR-04301-1186</SerialNumber><EBNVersion>3.0.3.80</EBNVersion><FirmwareVersion>1.33</FirmwareVersion><APIVersion>1.33</APIVersion><USBHostControllerVersion>2.0</USBHostControllerVersion><USBConnectionRoute>USB#ROOT_HUB20#4&9bd2e8a&0#{f18a0e88-c30c-11d0-8815-00a0c906bed8} + USB#VID_8087&PID_0024#5&3026c139&0&1#{f18a0e88-c30c-11d0-8815-00a0c906bed8}(1) + VID_2266&PID_0007(7)</USBConnectionRoute></ChronosDeviceInfo>;"<?xml version=""1.0""?>\n<Clock xmlns:dt=""urn:schemas-microsoft-com:datatypes""><Description dt:dt=""string"">E-Prime Primary Realtime Clock</Description><StartTime><Timestamp dt:dt=""int"">0</Timestamp><DateUtc dt:dt=""string"">2021-05-04T12:54:39Z</DateUtc></StartTime><FrequencyChanges><FrequencyChange><Frequency dt:dt=""r8"">2435576</Frequency><Timestamp dt:dt=""r8"">57695471460</Timestamp><Current dt:dt=""r8"">0</Current><DateUtc dt:dt=""string"">2021-05-04T12:54:39Z</DateUtc></FrequencyChange></FrequencyChanges></Clock>\n";EXP2.2_290421-1015-1;60.024;1.0.0.367;1;Chronos;1861376075;Full;3.0.3.80;3.0.3.80;05/04/2021;04/05/2021 12:54;14:54:39;3.0.3.82;2;Chronos;;2;1;2;TESTVV;Generalbloc;;;;pretest;Chronos;46;1;VV_290421/885.png;3;1;46;-15;blocVVstim;listVVTrial;;;;Chronos;0;;0;-1;682061;200;;0;0;1;1;Chronos;0;0;682261;300;1;567;682828;1;1;Chronos;0;0;682561;0;1;267;682828;;;;;;;;;;;;;;;;;;;
EXP2.2_290421;1015;1;Chronos;<ChronosDeviceInfo><FriendlyName>MyChronos</FriendlyName><DeviceIndex>1</DeviceIndex><SerialNumber>CHR-04301-1186</SerialNumber><EBNVersion>3.0.3.80</EBNVersion><FirmwareVersion>1.33</FirmwareVersion><APIVersion>1.33</APIVersion><USBHostControllerVersion>2.0</USBHostControllerVersion><USBConnectionRoute>USB#ROOT_HUB20#4&9bd2e8a&0#{f18a0e88-c30c-11d0-8815-00a0c906bed8} + USB#VID_8087&PID_0024#5&3026c139&0&1#{f18a0e88-c30c-11d0-8815-00a0c906bed8}(1) + VID_2266&PID_0007(7)</USBConnectionRoute></ChronosDeviceInfo>;"<?xml version=""1.0""?>\n<Clock xmlns:dt=""urn:schemas-microsoft-com:datatypes""><Description dt:dt=""string"">E-Prime Primary Realtime Clock</Description><StartTime><Timestamp dt:dt=""int"">0</Timestamp><DateUtc dt:dt=""string"">2021-05-04T12:54:39Z</DateUtc></StartTime><FrequencyChanges><FrequencyChange><Frequency dt:dt=""r8"">2435576</Frequency><Timestamp dt:dt=""r8"">57695471460</Timestamp><Current dt:dt=""r8"">0</Current><DateUtc dt:dt=""string"">2021-05-04T12:54:39Z</DateUtc></FrequencyChange></FrequencyChanges></Clock>\n";EXP2.2_290421-1015-1;60.024;1.0.0.367;1;Chronos;1861376075;Full;3.0.3.80;3.0.3.80;05/04/2021;04/05/2021 12:54;14:54:39;3.0.3.82;2;Chronos;;2;1;2;TESTVV;Generalbloc;;;;pretest;Chronos;47;5;VV_290421/910.png;8;1;47;10;blocVVstim;listVVTrial;;;;Chronos;0;;1;-1;684343;200;;0;0;1;5;Chronos;0;0;684543;300;5;435;684978;1;5;Chronos;0;0;684843;0;5;135;684978;;;;;;;;;;;;;;;;;;;
EXP2.2_290421;1015;1;Chronos;<ChronosDeviceInfo><FriendlyName>MyChronos</FriendlyName><DeviceIndex>1</DeviceIndex><SerialNumber>CHR-04301-1186</SerialNumber><EBNVersion>3.0.3.80</EBNVersion><FirmwareVersion>1.33</FirmwareVersion><APIVersion>1.33</APIVersion><USBHostControllerVersion>2.0</USBHostControllerVersion><USBConnectionRoute>USB#ROOT_HUB20#4&9bd2e8a&0#{f18a0e88-c30c-11d0-8815-00a0c906bed8} + USB#VID_8087&PID_0024#5&3026c139&0&1#{f18a0e88-c30c-11d0-8815-00a0c906bed8}(1) + VID_2266&PID_0007(7)</USBConnectionRoute></ChronosDeviceInfo>;"<?xml version=""1.0""?>\n<Clock xmlns:dt=""urn:schemas-microsoft-com:datatypes""><Description dt:dt=""string"">E-Prime Primary Realtime Clock</Description><StartTime><Timestamp dt:dt=""int"">0</Timestamp><DateUtc dt:dt=""string"">2021-05-04T12:54:39Z</DateUtc></StartTime><FrequencyChanges><FrequencyChange><Frequency dt:dt=""r8"">2435576</Frequency><Timestamp dt:dt=""r8"">57695471460</Timestamp><Current dt:dt=""r8"">0</Current><DateUtc dt:dt=""string"">2021-05-04T12:54:39Z</DateUtc></FrequencyChange></FrequencyChanges></Clock>\n";EXP2.2_290421-1015-1;60.024;1.0.0.367;1;Chronos;1861376075;Full;3.0.3.80;3.0.3.80;05/04/2021;04/05/2021 12:54;14:54:39;3.0.3.82;2;Chronos;;2;1;2;TESTVV;Generalbloc;;;;pretest;Chronos;48;5;VV_290421/915.png;9;1;48;15;blocVVstim;listVVTrial;;;;Chronos;0;;0;0;686493;199;;0;0;1;5;Chronos;1;-1;686692;300;5;414;687106;1;5;Chronos;0;0;686992;0;5;114;687106;;;;;;;;;;;;;;;;;;;
EXP2.2_290421;1015;1;Chronos;<ChronosDeviceInfo><FriendlyName>MyChronos</FriendlyName><DeviceIndex>1</DeviceIndex><SerialNumber>CHR-04301-1186</SerialNumber><EBNVersion>3.0.3.80</EBNVersion><FirmwareVersion>1.33</FirmwareVersion><APIVersion>1.33</APIVersion><USBHostControllerVersion>2.0</USBHostControllerVersion><USBConnectionRoute>USB#ROOT_HUB20#4&9bd2e8a&0#{f18a0e88-c30c-11d0-8815-00a0c906bed8} + USB#VID_8087&PID_0024#5&3026c139&0&1#{f18a0e88-c30c-11d0-8815-00a0c906bed8}(1) + VID_2266&PID_0007(7)</USBConnectionRoute></ChronosDeviceInfo>;"<?xml version=""1.0""?>\n<Clock xmlns:dt=""urn:schemas-microsoft-com:datatypes""><Description dt:dt=""string"">E-Prime Primary Realtime Clock</Description><StartTime><Timestamp dt:dt=""int"">0</Timestamp><DateUtc dt:dt=""string"">2021-05-04T12:54:39Z</DateUtc></StartTime><FrequencyChanges><FrequencyChange><Frequency dt:dt=""r8"">2435576</Frequency><Timestamp dt:dt=""r8"">57695471460</Timestamp><Current dt:dt=""r8"">0</Current><DateUtc dt:dt=""string"">2021-05-04T12:54:39Z</DateUtc></FrequencyChange></FrequencyChanges></Clock>\n";EXP2.2_290421-1015-1;60.024;1.0.0.367;1;Chronos;1861376075;Full;3.0.3.80;3.0.3.80;05/04/2021;04/05/2021 12:54;14:54:39;3.0.3.82;2;Chronos;;2;1;2;TESTVV;Generalbloc;;;;pretest;Chronos;49;1;VV_290421/875.png;1;1;49;-25;blocVVstim;listVVTrial;;;;Chronos;0;;0;-1;688625;200;;0;0;1;1;Chronos;0;0;688825;300;1;381;689206;1;1;Chronos;0;0;689125;0;1;81;689206;;;;;;;;;;;;;;;;;;;
EXP2.2_290421;1015;1;Chronos;<ChronosDeviceInfo><FriendlyName>MyChronos</FriendlyName><DeviceIndex>1</DeviceIndex><SerialNumber>CHR-04301-1186</SerialNumber><EBNVersion>3.0.3.80</EBNVersion><FirmwareVersion>1.33</FirmwareVersion><APIVersion>1.33</APIVersion><USBHostControllerVersion>2.0</USBHostControllerVersion><USBConnectionRoute>USB#ROOT_HUB20#4&9bd2e8a&0#{f18a0e88-c30c-11d0-8815-00a0c906bed8} + USB#VID_8087&PID_0024#5&3026c139&0&1#{f18a0e88-c30c-11d0-8815-00a0c906bed8}(1) + VID_2266&PID_0007(7)</USBConnectionRoute></ChronosDeviceInfo>;"<?xml version=""1.0""?>\n<Clock xmlns:dt=""urn:schemas-microsoft-com:datatypes""><Description dt:dt=""string"">E-Prime Primary Realtime Clock</Description><StartTime><Timestamp dt:dt=""int"">0</Timestamp><DateUtc dt:dt=""string"">2021-05-04T12:54:39Z</DateUtc></StartTime><FrequencyChanges><FrequencyChange><Frequency dt:dt=""r8"">2435576</Frequency><Timestamp dt:dt=""r8"">57695471460</Timestamp><Current dt:dt=""r8"">0</Current><DateUtc dt:dt=""string"">2021-05-04T12:54:39Z</DateUtc></FrequencyChange></FrequencyChanges></Clock>\n";EXP2.2_290421-1015-1;60.024;1.0.0.367;1;Chronos;1861376075;Full;3.0.3.80;3.0.3.80;05/04/2021;04/05/2021 12:54;14:54:39;3.0.3.82;2;Chronos;;2;1;2;TESTVV;Generalbloc;;;;pretest;Chronos;50;5;VV_290421/925.png;11;1;50;25;blocVVstim;listVVTrial;;;;Chronos;0;;0;-1;690724;200;;0;0;1;5;Chronos;0;0;690924;0;5;125;691049;0;;;-999999;0;0;0;;0;0;;;;;;;;;;;;;;;;;;;
EXP2.2_290421;1015;1;Chronos;<ChronosDeviceInfo><FriendlyName>MyChronos</FriendlyName><DeviceIndex>1</DeviceIndex><SerialNumber>CHR-04301-1186</SerialNumber><EBNVersion>3.0.3.80</EBNVersion><FirmwareVersion>1.33</FirmwareVersion><APIVersion>1.33</APIVersion><USBHostControllerVersion>2.0</USBHostControllerVersion><USBConnectionRoute>USB#ROOT_HUB20#4&9bd2e8a&0#{f18a0e88-c30c-11d0-8815-00a0c906bed8} + USB#VID_8087&PID_0024#5&3026c139&0&1#{f18a0e88-c30c-11d0-8815-00a0c906bed8}(1) + VID_2266&PID_0007(7)</USBConnectionRoute></ChronosDeviceInfo>;"<?xml version=""1.0""?>\n<Clock xmlns:dt=""urn:schemas-microsoft-com:datatypes""><Description dt:dt=""string"">E-Prime Primary Realtime Clock</Description><StartTime><Timestamp dt:dt=""int"">0</Timestamp><DateUtc dt:dt=""string"">2021-05-04T12:54:39Z</DateUtc></StartTime><FrequencyChanges><FrequencyChange><Frequency dt:dt=""r8"">2435576</Frequency><Timestamp dt:dt=""r8"">57695471460</Timestamp><Current dt:dt=""r8"">0</Current><DateUtc dt:dt=""string"">2021-05-04T12:54:39Z</DateUtc></FrequencyChange></FrequencyChanges></Clock>\n";EXP2.2_290421-1015-1;60.024;1.0.0.367;1;Chronos;1861376075;Full;3.0.3.80;3.0.3.80;05/04/2021;04/05/2021 12:54;14:54:39;3.0.3.82;2;Chronos;;2;1;2;TESTVV;Generalbloc;;;;pretest;Chronos;51;1;VV_290421/875.png;1;1;51;-25;blocVVstim;listVVTrial;;;;Chronos;0;;0;-1;692640;200;;0;0;1;1;Chronos;0;0;692840;300;1;300;693140;1;1;Chronos;0;0;693140;0;1;0;693140;;;;;;;;;;;;;;;;;;;
EXP2.2_290421;1015;1;Chronos;<ChronosDeviceInfo><FriendlyName>MyChronos</FriendlyName><DeviceIndex>1</DeviceIndex><SerialNumber>CHR-04301-1186</SerialNumber><EBNVersion>3.0.3.80</EBNVersion><FirmwareVersion>1.33</FirmwareVersion><APIVersion>1.33</APIVersion><USBHostControllerVersion>2.0</USBHostControllerVersion><USBConnectionRoute>USB#ROOT_HUB20#4&9bd2e8a&0#{f18a0e88-c30c-11d0-8815-00a0c906bed8} + USB#VID_8087&PID_0024#5&3026c139&0&1#{f18a0e88-c30c-11d0-8815-00a0c906bed8}(1) + VID_2266&PID_0007(7)</USBConnectionRoute></ChronosDeviceInfo>;"<?xml version=""1.0""?>\n<Clock xmlns:dt=""urn:schemas-microsoft-com:datatypes""><Description dt:dt=""string"">E-Prime Primary Realtime Clock</Description><StartTime><Timestamp dt:dt=""int"">0</Timestamp><DateUtc dt:dt=""string"">2021-05-04T12:54:39Z</DateUtc></StartTime><FrequencyChanges><FrequencyChange><Frequency dt:dt=""r8"">2435576</Frequency><Timestamp dt:dt=""r8"">57695471460</Timestamp><Current dt:dt=""r8"">0</Current><DateUtc dt:dt=""string"">2021-05-04T12:54:39Z</DateUtc></FrequencyChange></FrequencyChanges></Clock>\n";EXP2.2_290421-1015-1;60.024;1.0.0.367;1;Chronos;1861376075;Full;3.0.3.80;3.0.3.80;05/04/2021;04/05/2021 12:54;14:54:39;3.0.3.82;2;Chronos;;2;1;2;TESTVV;Generalbloc;;;;pretest;Chronos;52;5;VV_290421/920.png;10;1;52;20;blocVVstim;listVVTrial;;;;Chronos;0;;0;-1;694706;200;;0;0;1;5;Chronos;0;0;694906;300;5;319;695225;1;5;Chronos;0;0;695206;0;5;19;695225;;;;;;;;;;;;;;;;;;;
EXP2.2_290421;1015;1;Chronos;<ChronosDeviceInfo><FriendlyName>MyChronos</FriendlyName><DeviceIndex>1</DeviceIndex><SerialNumber>CHR-04301-1186</SerialNumber><EBNVersion>3.0.3.80</EBNVersion><FirmwareVersion>1.33</FirmwareVersion><APIVersion>1.33</APIVersion><USBHostControllerVersion>2.0</USBHostControllerVersion><USBConnectionRoute>USB#ROOT_HUB20#4&9bd2e8a&0#{f18a0e88-c30c-11d0-8815-00a0c906bed8} + USB#VID_8087&PID_0024#5&3026c139&0&1#{f18a0e88-c30c-11d0-8815-00a0c906bed8}(1) + VID_2266&PID_0007(7)</USBConnectionRoute></ChronosDeviceInfo>;"<?xml version=""1.0""?>\n<Clock xmlns:dt=""urn:schemas-microsoft-com:datatypes""><Description dt:dt=""string"">E-Prime Primary Realtime Clock</Description><StartTime><Timestamp dt:dt=""int"">0</Timestamp><DateUtc dt:dt=""string"">2021-05-04T12:54:39Z</DateUtc></StartTime><FrequencyChanges><FrequencyChange><Frequency dt:dt=""r8"">2435576</Frequency><Timestamp dt:dt=""r8"">57695471460</Timestamp><Current dt:dt=""r8"">0</Current><DateUtc dt:dt=""string"">2021-05-04T12:54:39Z</DateUtc></FrequencyChange></FrequencyChanges></Clock>\n";EXP2.2_290421-1015-1;60.024;1.0.0.367;1;Chronos;1861376075;Full;3.0.3.80;3.0.3.80;05/04/2021;04/05/2021 12:54;14:54:39;3.0.3.82;2;Chronos;;2;1;2;TESTVV;Generalbloc;;;;pretest;Chronos;53;5;VV_290421/910.png;8;1;53;10;blocVVstim;listVVTrial;;;;Chronos;0;;0;0;696739;199;;0;0;1;5;Chronos;1;-1;696938;300;5;564;697502;1;5;Chronos;1;0;697238;0;5;264;697502;;;;;;;;;;;;;;;;;;;
EXP2.2_290421;1015;1;Chronos;<ChronosDeviceInfo><FriendlyName>MyChronos</FriendlyName><DeviceIndex>1</DeviceIndex><SerialNumber>CHR-04301-1186</SerialNumber><EBNVersion>3.0.3.80</EBNVersion><FirmwareVersion>1.33</FirmwareVersion><APIVersion>1.33</APIVersion><USBHostControllerVersion>2.0</USBHostControllerVersion><USBConnectionRoute>USB#ROOT_HUB20#4&9bd2e8a&0#{f18a0e88-c30c-11d0-8815-00a0c906bed8} + USB#VID_8087&PID_0024#5&3026c139&0&1#{f18a0e88-c30c-11d0-8815-00a0c906bed8}(1) + VID_2266&PID_0007(7)</USBConnectionRoute></ChronosDeviceInfo>;"<?xml version=""1.0""?>\n<Clock xmlns:dt=""urn:schemas-microsoft-com:datatypes""><Description dt:dt=""string"">E-Prime Primary Realtime Clock</Description><StartTime><Timestamp dt:dt=""int"">0</Timestamp><DateUtc dt:dt=""string"">2021-05-04T12:54:39Z</DateUtc></StartTime><FrequencyChanges><FrequencyChange><Frequency dt:dt=""r8"">2435576</Frequency><Timestamp dt:dt=""r8"">57695471460</Timestamp><Current dt:dt=""r8"">0</Current><DateUtc dt:dt=""string"">2021-05-04T12:54:39Z</DateUtc></FrequencyChange></FrequencyChanges></Clock>\n";EXP2.2_290421-1015-1;60.024;1.0.0.367;1;Chronos;1861376075;Full;3.0.3.80;3.0.3.80;05/04/2021;04/05/2021 12:54;14:54:39;3.0.3.82;2;Chronos;;2;1;2;TESTVV;Generalbloc;;;;pretest;Chronos;54;15;VV_290421/900.png;6;1;54;0;blocVVstim;listVVTrial;;;;Chronos;0;;0;-1;699021;200;;0;0;0;15;Chronos;0;0;699221;300;5;1463;700684;0;15;Chronos;0;0;699521;0;5;1163;700684;;;;;;;;;;;;;;;;;;;
EXP2.2_290421;1015;1;Chronos;<ChronosDeviceInfo><FriendlyName>MyChronos</FriendlyName><DeviceIndex>1</DeviceIndex><SerialNumber>CHR-04301-1186</SerialNumber><EBNVersion>3.0.3.80</EBNVersion><FirmwareVersion>1.33</FirmwareVersion><APIVersion>1.33</APIVersion><USBHostControllerVersion>2.0</USBHostControllerVersion><USBConnectionRoute>USB#ROOT_HUB20#4&9bd2e8a&0#{f18a0e88-c30c-11d0-8815-00a0c906bed8} + USB#VID_8087&PID_0024#5&3026c139&0&1#{f18a0e88-c30c-11d0-8815-00a0c906bed8}(1) + VID_2266&PID_0007(7)</USBConnectionRoute></ChronosDeviceInfo>;"<?xml version=""1.0""?>\n<Clock xmlns:dt=""urn:schemas-microsoft-com:datatypes""><Description dt:dt=""string"">E-Prime Primary Realtime Clock</Description><StartTime><Timestamp dt:dt=""int"">0</Timestamp><DateUtc dt:dt=""string"">2021-05-04T12:54:39Z</DateUtc></StartTime><FrequencyChanges><FrequencyChange><Frequency dt:dt=""r8"">2435576</Frequency><Timestamp dt:dt=""r8"">57695471460</Timestamp><Current dt:dt=""r8"">0</Current><DateUtc dt:dt=""string"">2021-05-04T12:54:39Z</DateUtc></FrequencyChange></FrequencyChanges></Clock>\n";EXP2.2_290421-1015-1;60.024;1.0.0.367;1;Chronos;1861376075;Full;3.0.3.80;3.0.3.80;05/04/2021;04/05/2021 12:54;14:54:39;3.0.3.82;2;Chronos;;2;1;2;TESTVV;Generalbloc;;;;pretest;Chronos;55;15;VV_290421/900.png;6;1;55;0;blocVVstim;listVVTrial;;;;Chronos;0;;0;-1;702203;200;;0;0;0;15;Chronos;0;0;702403;300;5;471;702874;0;15;Chronos;0;0;702703;0;5;171;702874;;;;;;;;;;;;;;;;;;;
EXP2.2_290421;1015;1;Chronos;<ChronosDeviceInfo><FriendlyName>MyChronos</FriendlyName><DeviceIndex>1</DeviceIndex><SerialNumber>CHR-04301-1186</SerialNumber><EBNVersion>3.0.3.80</EBNVersion><FirmwareVersion>1.33</FirmwareVersion><APIVersion>1.33</APIVersion><USBHostControllerVersion>2.0</USBHostControllerVersion><USBConnectionRoute>USB#ROOT_HUB20#4&9bd2e8a&0#{f18a0e88-c30c-11d0-8815-00a0c906bed8} + USB#VID_8087&PID_0024#5&3026c139&0&1#{f18a0e88-c30c-11d0-8815-00a0c906bed8}(1) + VID_2266&PID_0007(7)</USBConnectionRoute></ChronosDeviceInfo>;"<?xml version=""1.0""?>\n<Clock xmlns:dt=""urn:schemas-microsoft-com:datatypes""><Description dt:dt=""string"">E-Prime Primary Realtime Clock</Description><StartTime><Timestamp dt:dt=""int"">0</Timestamp><DateUtc dt:dt=""string"">2021-05-04T12:54:39Z</DateUtc></StartTime><FrequencyChanges><FrequencyChange><Frequency dt:dt=""r8"">2435576</Frequency><Timestamp dt:dt=""r8"">57695471460</Timestamp><Current dt:dt=""r8"">0</Current><DateUtc dt:dt=""string"">2021-05-04T12:54:39Z</DateUtc></FrequencyChange></FrequencyChanges></Clock>\n";EXP2.2_290421-1015-1;60.024;1.0.0.367;1;Chronos;1861376075;Full;3.0.3.80;3.0.3.80;05/04/2021;04/05/2021 12:54;14:54:39;3.0.3.82;2;Chronos;;2;1;2;TESTVV;Generalbloc;;;;pretest;Chronos;56;1;VV_290421/895.png;5;1;56;-5;blocVVstim;listVVTrial;;;;Chronos;0;;0;-1;704402;200;;0;0;0;1;Chronos;0;0;704602;300;5;1437;706039;0;1;Chronos;0;0;704902;0;5;1137;706039;;;;;;;;;;;;;;;;;;;
EXP2.2_290421;1015;1;Chronos;<ChronosDeviceInfo><FriendlyName>MyChronos</FriendlyName><DeviceIndex>1</DeviceIndex><SerialNumber>CHR-04301-1186</SerialNumber><EBNVersion>3.0.3.80</EBNVersion><FirmwareVersion>1.33</FirmwareVersion><APIVersion>1.33</APIVersion><USBHostControllerVersion>2.0</USBHostControllerVersion><USBConnectionRoute>USB#ROOT_HUB20#4&9bd2e8a&0#{f18a0e88-c30c-11d0-8815-00a0c906bed8} + USB#VID_8087&PID_0024#5&3026c139&0&1#{f18a0e88-c30c-11d0-8815-00a0c906bed8}(1) + VID_2266&PID_0007(7)</USBConnectionRoute></ChronosDeviceInfo>;"<?xml version=""1.0""?>\n<Clock xmlns:dt=""urn:schemas-microsoft-com:datatypes""><Description dt:dt=""string"">E-Prime Primary Realtime Clock</Description><StartTime><Timestamp dt:dt=""int"">0</Timestamp><DateUtc dt:dt=""string"">2021-05-04T12:54:39Z</DateUtc></StartTime><FrequencyChanges><FrequencyChange><Frequency dt:dt=""r8"">2435576</Frequency><Timestamp dt:dt=""r8"">57695471460</Timestamp><Current dt:dt=""r8"">0</Current><DateUtc dt:dt=""string"">2021-05-04T12:54:39Z</DateUtc></FrequencyChange></FrequencyChanges></Clock>\n";EXP2.2_290421-1015-1;60.024;1.0.0.367;1;Chronos;1861376075;Full;3.0.3.80;3.0.3.80;05/04/2021;04/05/2021 12:54;14:54:39;3.0.3.82;2;Chronos;;2;1;2;TESTVV;Generalbloc;;;;pretest;Chronos;57;5;VV_290421/905.png;7;1;57;5;blocVVstim;listVVTrial;;;;Chronos;0;;0;-1;707551;200;;0;0;1;5;Chronos;0;0;707751;300;5;404;708155;1;5;Chronos;0;0;708051;0;5;104;708155;;;;;;;;;;;;;;;;;;;
