ExperimentName;Subject;Session;calibrage.DEVICE[Session];Chronos.BoxInfo;Clock.Information;DataFile.Basename;Display.RefreshRate;ExperimentVersion;Group;Hello.DEVICE;RandomSeed;RuntimeCapabilities;RuntimeVersion;RuntimeVersionExpected;SessionDate;SessionStartDateTimeUtc;SessionTime;StudioVersion;Block;calibrage.DEVICE[Block];EndTraining.DEVICE;Generalbloc;Generalbloc.Cycle;Generalbloc.Sample;Procedure[Block];Running[Block];TextDisplay1.DEVICE;TextDisplay2.DEVICE;TextTraining.DEVICE;time;VVInst.DEVICE[Block];Trial;correct;image;listVVTrial;listVVTrial.Cycle;listVVTrial.Sample;offset;Procedure[Trial];Running[Trial];SpatialTaskTraining;SpatialTaskTraining.Cycle;SpatialTaskTraining.Sample;VVInst.DEVICE[Trial];vvstimnoresp.ACC;vvstimnoresp.CRESP;vvstimnoresp.DurationError;vvstimnoresp.OnsetDelay;vvstimnoresp.OnsetTime;vvstimnoresp.OnsetToOnsetTime;vvstimnoresp.RESP;vvstimnoresp.RT;vvstimnoresp.RTTime;vvstimresp1.ACC;vvstimresp1.CRESP;vvstimresp1.DEVICE;vvstimresp1.DurationError;vvstimresp1.OnsetDelay;vvstimresp1.OnsetTime;vvstimresp1.OnsetToOnsetTime;vvstimresp1.RESP;vvstimresp1.RT;vvstimresp1.RTTime;vvstimresp2.ACC;vvstimresp2.CRESP;vvstimresp2.DEVICE;vvstimresp2.DurationError;vvstimresp2.OnsetDelay;vvstimresp2.OnsetTime;vvstimresp2.OnsetToOnsetTime;vvstimresp2.RESP;vvstimresp2.RT;vvstimresp2.RTTime;SubTrial;LISTVVRANDOM1;LISTVVRANDOM1.Cycle;LISTVVRANDOM1.Sample;LISTVVRANDOM2;Procedure[SubTrial];Running[SubTrial];VVR;VVRANDOM;VVRANDOMRESP.ACC;VVRANDOMRESP.CRESP;VVRANDOMRESP.DEVICE;VVRANDOMRESP.DurationError;VVRANDOMRESP.OnsetDelay;VVRANDOMRESP.OnsetTime;VVRANDOMRESP.OnsetToOnsetTime;VVRANDOMRESP.RESP;VVRANDOMRESP.RT;VVRANDOMRESP.RTTime
EXP2.2_290421;1009;1;Chronos;<ChronosDeviceInfo><FriendlyName>MyChronos</FriendlyName><DeviceIndex>1</DeviceIndex><SerialNumber>CHR-04301-1186</SerialNumber><EBNVersion>3.0.3.80</EBNVersion><FirmwareVersion>1.33</FirmwareVersion><APIVersion>1.33</APIVersion><USBHostControllerVersion>2.0</USBHostControllerVersion><USBConnectionRoute>USB#ROOT_HUB20#4&9bd2e8a&0#{f18a0e88-c30c-11d0-8815-00a0c906bed8} + USB#VID_8087&PID_0024#5&3026c139&0&1#{f18a0e88-c30c-11d0-8815-00a0c906bed8}(1) + VID_2266&PID_0007(7)</USBConnectionRoute></ChronosDeviceInfo>;"<?xml version=""1.0""?>\n<Clock xmlns:dt=""urn:schemas-microsoft-com:datatypes""><Description dt:dt=""string"">E-Prime Primary Realtime Clock</Description><StartTime><Timestamp dt:dt=""int"">0</Timestamp><DateUtc dt:dt=""string"">2021-05-03T11:08:54Z</DateUtc></StartTime><FrequencyChanges><FrequencyChange><Frequency dt:dt=""r8"">2435566</Frequency><Timestamp dt:dt=""r8"">37953401795</Timestamp><Current dt:dt=""r8"">0</Current><DateUtc dt:dt=""string"">2021-05-03T11:08:54Z</DateUtc></FrequencyChange></FrequencyChanges></Clock>\n";EXP2.2_290421-1009-1;60.024;1.0.0.357;1;Chronos;-700867185;Full;3.0.3.80;3.0.3.80;05/03/2021;03/05/2021 11:08;13:08:54;3.0.3.82;1;Chronos;Chronos;1;1;1;Training;Generalbloc;;;Chronos;pretest;;1;;;;;;;TRAININGVV;SpatialTaskTraining;1;1;1;Chronos;;;;;;;;;;;;;;;;;;;;;;;;;;;;;;1;1;1;1;1;blocVVstimTraining;LISTVVRANDOM1;VV_290421/875.png;VV_290421/880.png;0;;Chronos;-999999;0;239149;0;5;11904;251053
EXP2.2_290421;1009;1;Chronos;<ChronosDeviceInfo><FriendlyName>MyChronos</FriendlyName><DeviceIndex>1</DeviceIndex><SerialNumber>CHR-04301-1186</SerialNumber><EBNVersion>3.0.3.80</EBNVersion><FirmwareVersion>1.33</FirmwareVersion><APIVersion>1.33</APIVersion><USBHostControllerVersion>2.0</USBHostControllerVersion><USBConnectionRoute>USB#ROOT_HUB20#4&9bd2e8a&0#{f18a0e88-c30c-11d0-8815-00a0c906bed8} + USB#VID_8087&PID_0024#5&3026c139&0&1#{f18a0e88-c30c-11d0-8815-00a0c906bed8}(1) + VID_2266&PID_0007(7)</USBConnectionRoute></ChronosDeviceInfo>;"<?xml version=""1.0""?>\n<Clock xmlns:dt=""urn:schemas-microsoft-com:datatypes""><Description dt:dt=""string"">E-Prime Primary Realtime Clock</Description><StartTime><Timestamp dt:dt=""int"">0</Timestamp><DateUtc dt:dt=""string"">2021-05-03T11:08:54Z</DateUtc></StartTime><FrequencyChanges><FrequencyChange><Frequency dt:dt=""r8"">2435566</Frequency><Timestamp dt:dt=""r8"">37953401795</Timestamp><Current dt:dt=""r8"">0</Current><DateUtc dt:dt=""string"">2021-05-03T11:08:54Z</DateUtc></FrequencyChange></FrequencyChanges></Clock>\n";EXP2.2_290421-1009-1;60.024;1.0.0.357;1;Chronos;-700867185;Full;3.0.3.80;3.0.3.80;05/03/2021;03/05/2021 11:08;13:08:54;3.0.3.82;1;Chronos;Chronos;1;1;1;Training;Generalbloc;;;Chronos;pretest;;1;;;;;;;TRAININGVV;SpatialTaskTraining;1;1;1;Chronos;;;;;;;;;;;;;;;;;;;;;;;;;;;;;;2;1;1;2;3;blocVVstimTraining;LISTVVRANDOM1;VV_290421/885.png;VV_290421/890.png;0;;Chronos;-999999;0;253077;0;5;1017;254094
EXP2.2_290421;1009;1;Chronos;<ChronosDeviceInfo><FriendlyName>MyChronos</FriendlyName><DeviceIndex>1</DeviceIndex><SerialNumber>CHR-04301-1186</SerialNumber><EBNVersion>3.0.3.80</EBNVersion><FirmwareVersion>1.33</FirmwareVersion><APIVersion>1.33</APIVersion><USBHostControllerVersion>2.0</USBHostControllerVersion><USBConnectionRoute>USB#ROOT_HUB20#4&9bd2e8a&0#{f18a0e88-c30c-11d0-8815-00a0c906bed8} + USB#VID_8087&PID_0024#5&3026c139&0&1#{f18a0e88-c30c-11d0-8815-00a0c906bed8}(1) + VID_2266&PID_0007(7)</USBConnectionRoute></ChronosDeviceInfo>;"<?xml version=""1.0""?>\n<Clock xmlns:dt=""urn:schemas-microsoft-com:datatypes""><Description dt:dt=""string"">E-Prime Primary Realtime Clock</Description><StartTime><Timestamp dt:dt=""int"">0</Timestamp><DateUtc dt:dt=""string"">2021-05-03T11:08:54Z</DateUtc></StartTime><FrequencyChanges><FrequencyChange><Frequency dt:dt=""r8"">2435566</Frequency><Timestamp dt:dt=""r8"">37953401795</Timestamp><Current dt:dt=""r8"">0</Current><DateUtc dt:dt=""string"">2021-05-03T11:08:54Z</DateUtc></FrequencyChange></FrequencyChanges></Clock>\n";EXP2.2_290421-1009-1;60.024;1.0.0.357;1;Chronos;-700867185;Full;3.0.3.80;3.0.3.80;05/03/2021;03/05/2021 11:08;13:08:54;3.0.3.82;1;Chronos;Chronos;1;1;1;Training;Generalbloc;;;Chronos;pretest;;1;;;;;;;TRAININGVV;SpatialTaskTraining;1;1;1;Chronos;;;;;;;;;;;;;;;;;;;;;;;;;;;;;;3;1;1;3;5;blocVVstimTraining;LISTVVRANDOM1;VV_290421/895.png;VV_290421/900.png;0;;Chronos;-999999;0;256109;0;5;747;256856
EXP2.2_290421;1009;1;Chronos;<ChronosDeviceInfo><FriendlyName>MyChronos</FriendlyName><DeviceIndex>1</DeviceIndex><SerialNumber>CHR-04301-1186</SerialNumber><EBNVersion>3.0.3.80</EBNVersion><FirmwareVersion>1.33</FirmwareVersion><APIVersion>1.33</APIVersion><USBHostControllerVersion>2.0</USBHostControllerVersion><USBConnectionRoute>USB#ROOT_HUB20#4&9bd2e8a&0#{f18a0e88-c30c-11d0-8815-00a0c906bed8} + USB#VID_8087&PID_0024#5&3026c139&0&1#{f18a0e88-c30c-11d0-8815-00a0c906bed8}(1) + VID_2266&PID_0007(7)</USBConnectionRoute></ChronosDeviceInfo>;"<?xml version=""1.0""?>\n<Clock xmlns:dt=""urn:schemas-microsoft-com:datatypes""><Description dt:dt=""string"">E-Prime Primary Realtime Clock</Description><StartTime><Timestamp dt:dt=""int"">0</Timestamp><DateUtc dt:dt=""string"">2021-05-03T11:08:54Z</DateUtc></StartTime><FrequencyChanges><FrequencyChange><Frequency dt:dt=""r8"">2435566</Frequency><Timestamp dt:dt=""r8"">37953401795</Timestamp><Current dt:dt=""r8"">0</Current><DateUtc dt:dt=""string"">2021-05-03T11:08:54Z</DateUtc></FrequencyChange></FrequencyChanges></Clock>\n";EXP2.2_290421-1009-1;60.024;1.0.0.357;1;Chronos;-700867185;Full;3.0.3.80;3.0.3.80;05/03/2021;03/05/2021 11:08;13:08:54;3.0.3.82;1;Chronos;Chronos;1;1;1;Training;Generalbloc;;;Chronos;pretest;;1;;;;;;;TRAININGVV;SpatialTaskTraining;1;1;1;Chronos;;;;;;;;;;;;;;;;;;;;;;;;;;;;;;4;1;1;4;7;blocVVstimTraining;LISTVVRANDOM1;VV_290421/905.png;VV_290421/910.png;0;;Chronos;-999999;0;258875;0;5;1069;259944
EXP2.2_290421;1009;1;Chronos;<ChronosDeviceInfo><FriendlyName>MyChronos</FriendlyName><DeviceIndex>1</DeviceIndex><SerialNumber>CHR-04301-1186</SerialNumber><EBNVersion>3.0.3.80</EBNVersion><FirmwareVersion>1.33</FirmwareVersion><APIVersion>1.33</APIVersion><USBHostControllerVersion>2.0</USBHostControllerVersion><USBConnectionRoute>USB#ROOT_HUB20#4&9bd2e8a&0#{f18a0e88-c30c-11d0-8815-00a0c906bed8} + USB#VID_8087&PID_0024#5&3026c139&0&1#{f18a0e88-c30c-11d0-8815-00a0c906bed8}(1) + VID_2266&PID_0007(7)</USBConnectionRoute></ChronosDeviceInfo>;"<?xml version=""1.0""?>\n<Clock xmlns:dt=""urn:schemas-microsoft-com:datatypes""><Description dt:dt=""string"">E-Prime Primary Realtime Clock</Description><StartTime><Timestamp dt:dt=""int"">0</Timestamp><DateUtc dt:dt=""string"">2021-05-03T11:08:54Z</DateUtc></StartTime><FrequencyChanges><FrequencyChange><Frequency dt:dt=""r8"">2435566</Frequency><Timestamp dt:dt=""r8"">37953401795</Timestamp><Current dt:dt=""r8"">0</Current><DateUtc dt:dt=""string"">2021-05-03T11:08:54Z</DateUtc></FrequencyChange></FrequencyChanges></Clock>\n";EXP2.2_290421-1009-1;60.024;1.0.0.357;1;Chronos;-700867185;Full;3.0.3.80;3.0.3.80;05/03/2021;03/05/2021 11:08;13:08:54;3.0.3.82;1;Chronos;Chronos;1;1;1;Training;Generalbloc;;;Chronos;pretest;;1;;;;;;;TRAININGVV;SpatialTaskTraining;1;1;1;Chronos;;;;;;;;;;;;;;;;;;;;;;;;;;;;;;5;1;1;5;9;blocVVstimTraining;LISTVVRANDOM1;VV_290421/915.png;VV_290421/920.png;0;;Chronos;-999999;0;261957;0;5;780;262737
EXP2.2_290421;1009;1;Chronos;<ChronosDeviceInfo><FriendlyName>MyChronos</FriendlyName><DeviceIndex>1</DeviceIndex><SerialNumber>CHR-04301-1186</SerialNumber><EBNVersion>3.0.3.80</EBNVersion><FirmwareVersion>1.33</FirmwareVersion><APIVersion>1.33</APIVersion><USBHostControllerVersion>2.0</USBHostControllerVersion><USBConnectionRoute>USB#ROOT_HUB20#4&9bd2e8a&0#{f18a0e88-c30c-11d0-8815-00a0c906bed8} + USB#VID_8087&PID_0024#5&3026c139&0&1#{f18a0e88-c30c-11d0-8815-00a0c906bed8}(1) + VID_2266&PID_0007(7)</USBConnectionRoute></ChronosDeviceInfo>;"<?xml version=""1.0""?>\n<Clock xmlns:dt=""urn:schemas-microsoft-com:datatypes""><Description dt:dt=""string"">E-Prime Primary Realtime Clock</Description><StartTime><Timestamp dt:dt=""int"">0</Timestamp><DateUtc dt:dt=""string"">2021-05-03T11:08:54Z</DateUtc></StartTime><FrequencyChanges><FrequencyChange><Frequency dt:dt=""r8"">2435566</Frequency><Timestamp dt:dt=""r8"">37953401795</Timestamp><Current dt:dt=""r8"">0</Current><DateUtc dt:dt=""string"">2021-05-03T11:08:54Z</DateUtc></FrequencyChange></FrequencyChanges></Clock>\n";EXP2.2_290421-1009-1;60.024;1.0.0.357;1;Chronos;-700867185;Full;3.0.3.80;3.0.3.80;05/03/2021;03/05/2021 11:08;13:08:54;3.0.3.82;1;Chronos;Chronos;1;1;1;Training;Generalbloc;;;Chronos;pretest;;1;;;;;;;TRAININGVV;SpatialTaskTraining;1;1;1;Chronos;;;;;;;;;;;;;;;;;;;;;;;;;;;;;;6;1;1;6;11;blocVVstimTraining;LISTVVRANDOM1;VV_290421/925.png;VV_290421/875.png;0;;Chronos;-999999;0;264756;0;5;1450;266206
EXP2.2_290421;1009;1;Chronos;<ChronosDeviceInfo><FriendlyName>MyChronos</FriendlyName><DeviceIndex>1</DeviceIndex><SerialNumber>CHR-04301-1186</SerialNumber><EBNVersion>3.0.3.80</EBNVersion><FirmwareVersion>1.33</FirmwareVersion><APIVersion>1.33</APIVersion><USBHostControllerVersion>2.0</USBHostControllerVersion><USBConnectionRoute>USB#ROOT_HUB20#4&9bd2e8a&0#{f18a0e88-c30c-11d0-8815-00a0c906bed8} + USB#VID_8087&PID_0024#5&3026c139&0&1#{f18a0e88-c30c-11d0-8815-00a0c906bed8}(1) + VID_2266&PID_0007(7)</USBConnectionRoute></ChronosDeviceInfo>;"<?xml version=""1.0""?>\n<Clock xmlns:dt=""urn:schemas-microsoft-com:datatypes""><Description dt:dt=""string"">E-Prime Primary Realtime Clock</Description><StartTime><Timestamp dt:dt=""int"">0</Timestamp><DateUtc dt:dt=""string"">2021-05-03T11:08:54Z</DateUtc></StartTime><FrequencyChanges><FrequencyChange><Frequency dt:dt=""r8"">2435566</Frequency><Timestamp dt:dt=""r8"">37953401795</Timestamp><Current dt:dt=""r8"">0</Current><DateUtc dt:dt=""string"">2021-05-03T11:08:54Z</DateUtc></FrequencyChange></FrequencyChanges></Clock>\n";EXP2.2_290421-1009-1;60.024;1.0.0.357;1;Chronos;-700867185;Full;3.0.3.80;3.0.3.80;05/03/2021;03/05/2021 11:08;13:08:54;3.0.3.82;1;Chronos;Chronos;1;1;1;Training;Generalbloc;;;Chronos;pretest;;1;;;;;;;TRAININGVV;SpatialTaskTraining;1;1;1;Chronos;;;;;;;;;;;;;;;;;;;;;;;;;;;;;;7;1;1;7;2;blocVVstimTraining;LISTVVRANDOM1;VV_290421/880.png;VV_290421/885.png;0;;Chronos;-999999;0;268221;0;5;919;269140
EXP2.2_290421;1009;1;Chronos;<ChronosDeviceInfo><FriendlyName>MyChronos</FriendlyName><DeviceIndex>1</DeviceIndex><SerialNumber>CHR-04301-1186</SerialNumber><EBNVersion>3.0.3.80</EBNVersion><FirmwareVersion>1.33</FirmwareVersion><APIVersion>1.33</APIVersion><USBHostControllerVersion>2.0</USBHostControllerVersion><USBConnectionRoute>USB#ROOT_HUB20#4&9bd2e8a&0#{f18a0e88-c30c-11d0-8815-00a0c906bed8} + USB#VID_8087&PID_0024#5&3026c139&0&1#{f18a0e88-c30c-11d0-8815-00a0c906bed8}(1) + VID_2266&PID_0007(7)</USBConnectionRoute></ChronosDeviceInfo>;"<?xml version=""1.0""?>\n<Clock xmlns:dt=""urn:schemas-microsoft-com:datatypes""><Description dt:dt=""string"">E-Prime Primary Realtime Clock</Description><StartTime><Timestamp dt:dt=""int"">0</Timestamp><DateUtc dt:dt=""string"">2021-05-03T11:08:54Z</DateUtc></StartTime><FrequencyChanges><FrequencyChange><Frequency dt:dt=""r8"">2435566</Frequency><Timestamp dt:dt=""r8"">37953401795</Timestamp><Current dt:dt=""r8"">0</Current><DateUtc dt:dt=""string"">2021-05-03T11:08:54Z</DateUtc></FrequencyChange></FrequencyChanges></Clock>\n";EXP2.2_290421-1009-1;60.024;1.0.0.357;1;Chronos;-700867185;Full;3.0.3.80;3.0.3.80;05/03/2021;03/05/2021 11:08;13:08:54;3.0.3.82;1;Chronos;Chronos;1;1;1;Training;Generalbloc;;;Chronos;pretest;;1;;;;;;;TRAININGVV;SpatialTaskTraining;1;1;1;Chronos;;;;;;;;;;;;;;;;;;;;;;;;;;;;;;8;1;1;8;4;blocVVstimTraining;LISTVVRANDOM1;VV_290421/890.png;VV_290421/895.png;0;;Chronos;-999999;0;271153;0;5;1371;272524
EXP2.2_290421;1009;1;Chronos;<ChronosDeviceInfo><FriendlyName>MyChronos</FriendlyName><DeviceIndex>1</DeviceIndex><SerialNumber>CHR-04301-1186</SerialNumber><EBNVersion>3.0.3.80</EBNVersion><FirmwareVersion>1.33</FirmwareVersion><APIVersion>1.33</APIVersion><USBHostControllerVersion>2.0</USBHostControllerVersion><USBConnectionRoute>USB#ROOT_HUB20#4&9bd2e8a&0#{f18a0e88-c30c-11d0-8815-00a0c906bed8} + USB#VID_8087&PID_0024#5&3026c139&0&1#{f18a0e88-c30c-11d0-8815-00a0c906bed8}(1) + VID_2266&PID_0007(7)</USBConnectionRoute></ChronosDeviceInfo>;"<?xml version=""1.0""?>\n<Clock xmlns:dt=""urn:schemas-microsoft-com:datatypes""><Description dt:dt=""string"">E-Prime Primary Realtime Clock</Description><StartTime><Timestamp dt:dt=""int"">0</Timestamp><DateUtc dt:dt=""string"">2021-05-03T11:08:54Z</DateUtc></StartTime><FrequencyChanges><FrequencyChange><Frequency dt:dt=""r8"">2435566</Frequency><Timestamp dt:dt=""r8"">37953401795</Timestamp><Current dt:dt=""r8"">0</Current><DateUtc dt:dt=""string"">2021-05-03T11:08:54Z</DateUtc></FrequencyChange></FrequencyChanges></Clock>\n";EXP2.2_290421-1009-1;60.024;1.0.0.357;1;Chronos;-700867185;Full;3.0.3.80;3.0.3.80;05/03/2021;03/05/2021 11:08;13:08:54;3.0.3.82;1;Chronos;Chronos;1;1;1;Training;Generalbloc;;;Chronos;pretest;;1;;;;;;;TRAININGVV;SpatialTaskTraining;1;1;1;Chronos;;;;;;;;;;;;;;;;;;;;;;;;;;;;;;9;1;1;9;6;blocVVstimTraining;LISTVVRANDOM1;VV_290421/900.png;VV_290421/905.png;0;;Chronos;-999999;0;274552;0;5;881;275433
EXP2.2_290421;1009;1;Chronos;<ChronosDeviceInfo><FriendlyName>MyChronos</FriendlyName><DeviceIndex>1</DeviceIndex><SerialNumber>CHR-04301-1186</SerialNumber><EBNVersion>3.0.3.80</EBNVersion><FirmwareVersion>1.33</FirmwareVersion><APIVersion>1.33</APIVersion><USBHostControllerVersion>2.0</USBHostControllerVersion><USBConnectionRoute>USB#ROOT_HUB20#4&9bd2e8a&0#{f18a0e88-c30c-11d0-8815-00a0c906bed8} + USB#VID_8087&PID_0024#5&3026c139&0&1#{f18a0e88-c30c-11d0-8815-00a0c906bed8}(1) + VID_2266&PID_0007(7)</USBConnectionRoute></ChronosDeviceInfo>;"<?xml version=""1.0""?>\n<Clock xmlns:dt=""urn:schemas-microsoft-com:datatypes""><Description dt:dt=""string"">E-Prime Primary Realtime Clock</Description><StartTime><Timestamp dt:dt=""int"">0</Timestamp><DateUtc dt:dt=""string"">2021-05-03T11:08:54Z</DateUtc></StartTime><FrequencyChanges><FrequencyChange><Frequency dt:dt=""r8"">2435566</Frequency><Timestamp dt:dt=""r8"">37953401795</Timestamp><Current dt:dt=""r8"">0</Current><DateUtc dt:dt=""string"">2021-05-03T11:08:54Z</DateUtc></FrequencyChange></FrequencyChanges></Clock>\n";EXP2.2_290421-1009-1;60.024;1.0.0.357;1;Chronos;-700867185;Full;3.0.3.80;3.0.3.80;05/03/2021;03/05/2021 11:08;13:08:54;3.0.3.82;1;Chronos;Chronos;1;1;1;Training;Generalbloc;;;Chronos;pretest;;1;;;;;;;TRAININGVV;SpatialTaskTraining;1;1;1;Chronos;;;;;;;;;;;;;;;;;;;;;;;;;;;;;;10;1;1;10;8;blocVVstimTraining;LISTVVRANDOM1;VV_290421/910.png;VV_290421/915.png;0;;Chronos;-999999;0;277451;0;5;328;277779
EXP2.2_290421;1009;1;Chronos;<ChronosDeviceInfo><FriendlyName>MyChronos</FriendlyName><DeviceIndex>1</DeviceIndex><SerialNumber>CHR-04301-1186</SerialNumber><EBNVersion>3.0.3.80</EBNVersion><FirmwareVersion>1.33</FirmwareVersion><APIVersion>1.33</APIVersion><USBHostControllerVersion>2.0</USBHostControllerVersion><USBConnectionRoute>USB#ROOT_HUB20#4&9bd2e8a&0#{f18a0e88-c30c-11d0-8815-00a0c906bed8} + USB#VID_8087&PID_0024#5&3026c139&0&1#{f18a0e88-c30c-11d0-8815-00a0c906bed8}(1) + VID_2266&PID_0007(7)</USBConnectionRoute></ChronosDeviceInfo>;"<?xml version=""1.0""?>\n<Clock xmlns:dt=""urn:schemas-microsoft-com:datatypes""><Description dt:dt=""string"">E-Prime Primary Realtime Clock</Description><StartTime><Timestamp dt:dt=""int"">0</Timestamp><DateUtc dt:dt=""string"">2021-05-03T11:08:54Z</DateUtc></StartTime><FrequencyChanges><FrequencyChange><Frequency dt:dt=""r8"">2435566</Frequency><Timestamp dt:dt=""r8"">37953401795</Timestamp><Current dt:dt=""r8"">0</Current><DateUtc dt:dt=""string"">2021-05-03T11:08:54Z</DateUtc></FrequencyChange></FrequencyChanges></Clock>\n";EXP2.2_290421-1009-1;60.024;1.0.0.357;1;Chronos;-700867185;Full;3.0.3.80;3.0.3.80;05/03/2021;03/05/2021 11:08;13:08:54;3.0.3.82;2;Chronos;;2;1;2;TESTVV;Generalbloc;;;;pretest;Chronos;1;1;VV_290421/895.png;5;1;1;-5;blocVVstim;listVVTrial;;;;Chronos;0;;0;0;397588;200;;0;0;0;1;Chronos;0;0;397788;299;5;929;398717;0;1;Chronos;1;-1;398087;0;5;630;398717;;;;;;;;;;;;;;;;;;;
EXP2.2_290421;1009;1;Chronos;<ChronosDeviceInfo><FriendlyName>MyChronos</FriendlyName><DeviceIndex>1</DeviceIndex><SerialNumber>CHR-04301-1186</SerialNumber><EBNVersion>3.0.3.80</EBNVersion><FirmwareVersion>1.33</FirmwareVersion><APIVersion>1.33</APIVersion><USBHostControllerVersion>2.0</USBHostControllerVersion><USBConnectionRoute>USB#ROOT_HUB20#4&9bd2e8a&0#{f18a0e88-c30c-11d0-8815-00a0c906bed8} + USB#VID_8087&PID_0024#5&3026c139&0&1#{f18a0e88-c30c-11d0-8815-00a0c906bed8}(1) + VID_2266&PID_0007(7)</USBConnectionRoute></ChronosDeviceInfo>;"<?xml version=""1.0""?>\n<Clock xmlns:dt=""urn:schemas-microsoft-com:datatypes""><Description dt:dt=""string"">E-Prime Primary Realtime Clock</Description><StartTime><Timestamp dt:dt=""int"">0</Timestamp><DateUtc dt:dt=""string"">2021-05-03T11:08:54Z</DateUtc></StartTime><FrequencyChanges><FrequencyChange><Frequency dt:dt=""r8"">2435566</Frequency><Timestamp dt:dt=""r8"">37953401795</Timestamp><Current dt:dt=""r8"">0</Current><DateUtc dt:dt=""string"">2021-05-03T11:08:54Z</DateUtc></FrequencyChange></FrequencyChanges></Clock>\n";EXP2.2_290421-1009-1;60.024;1.0.0.357;1;Chronos;-700867185;Full;3.0.3.80;3.0.3.80;05/03/2021;03/05/2021 11:08;13:08:54;3.0.3.82;2;Chronos;;2;1;2;TESTVV;Generalbloc;;;;pretest;Chronos;2;5;VV_290421/905.png;7;1;2;5;blocVVstim;listVVTrial;;;;Chronos;0;;0;0;400237;200;;0;0;1;5;Chronos;0;0;400437;299;5;1327;401764;1;5;Chronos;1;-1;400736;0;5;1028;401764;;;;;;;;;;;;;;;;;;;
EXP2.2_290421;1009;1;Chronos;<ChronosDeviceInfo><FriendlyName>MyChronos</FriendlyName><DeviceIndex>1</DeviceIndex><SerialNumber>CHR-04301-1186</SerialNumber><EBNVersion>3.0.3.80</EBNVersion><FirmwareVersion>1.33</FirmwareVersion><APIVersion>1.33</APIVersion><USBHostControllerVersion>2.0</USBHostControllerVersion><USBConnectionRoute>USB#ROOT_HUB20#4&9bd2e8a&0#{f18a0e88-c30c-11d0-8815-00a0c906bed8} + USB#VID_8087&PID_0024#5&3026c139&0&1#{f18a0e88-c30c-11d0-8815-00a0c906bed8}(1) + VID_2266&PID_0007(7)</USBConnectionRoute></ChronosDeviceInfo>;"<?xml version=""1.0""?>\n<Clock xmlns:dt=""urn:schemas-microsoft-com:datatypes""><Description dt:dt=""string"">E-Prime Primary Realtime Clock</Description><StartTime><Timestamp dt:dt=""int"">0</Timestamp><DateUtc dt:dt=""string"">2021-05-03T11:08:54Z</DateUtc></StartTime><FrequencyChanges><FrequencyChange><Frequency dt:dt=""r8"">2435566</Frequency><Timestamp dt:dt=""r8"">37953401795</Timestamp><Current dt:dt=""r8"">0</Current><DateUtc dt:dt=""string"">2021-05-03T11:08:54Z</DateUtc></FrequencyChange></FrequencyChanges></Clock>\n";EXP2.2_290421-1009-1;60.024;1.0.0.357;1;Chronos;-700867185;Full;3.0.3.80;3.0.3.80;05/03/2021;03/05/2021 11:08;13:08:54;3.0.3.82;2;Chronos;;2;1;2;TESTVV;Generalbloc;;;;pretest;Chronos;3;1;VV_290421/880.png;2;1;3;-20;blocVVstim;listVVTrial;;;;Chronos;0;;1;-1;403285;200;;0;0;0;1;Chronos;1;0;403485;300;5;1398;404883;0;1;Chronos;0;0;403785;0;5;1098;404883;;;;;;;;;;;;;;;;;;;
EXP2.2_290421;1009;1;Chronos;<ChronosDeviceInfo><FriendlyName>MyChronos</FriendlyName><DeviceIndex>1</DeviceIndex><SerialNumber>CHR-04301-1186</SerialNumber><EBNVersion>3.0.3.80</EBNVersion><FirmwareVersion>1.33</FirmwareVersion><APIVersion>1.33</APIVersion><USBHostControllerVersion>2.0</USBHostControllerVersion><USBConnectionRoute>USB#ROOT_HUB20#4&9bd2e8a&0#{f18a0e88-c30c-11d0-8815-00a0c906bed8} + USB#VID_8087&PID_0024#5&3026c139&0&1#{f18a0e88-c30c-11d0-8815-00a0c906bed8}(1) + VID_2266&PID_0007(7)</USBConnectionRoute></ChronosDeviceInfo>;"<?xml version=""1.0""?>\n<Clock xmlns:dt=""urn:schemas-microsoft-com:datatypes""><Description dt:dt=""string"">E-Prime Primary Realtime Clock</Description><StartTime><Timestamp dt:dt=""int"">0</Timestamp><DateUtc dt:dt=""string"">2021-05-03T11:08:54Z</DateUtc></StartTime><FrequencyChanges><FrequencyChange><Frequency dt:dt=""r8"">2435566</Frequency><Timestamp dt:dt=""r8"">37953401795</Timestamp><Current dt:dt=""r8"">0</Current><DateUtc dt:dt=""string"">2021-05-03T11:08:54Z</DateUtc></FrequencyChange></FrequencyChanges></Clock>\n";EXP2.2_290421-1009-1;60.024;1.0.0.357;1;Chronos;-700867185;Full;3.0.3.80;3.0.3.80;05/03/2021;03/05/2021 11:08;13:08:54;3.0.3.82;2;Chronos;;2;1;2;TESTVV;Generalbloc;;;;pretest;Chronos;4;1;VV_290421/890.png;4;1;4;-10;blocVVstim;listVVTrial;;;;Chronos;0;;0;0;406401;200;;0;0;0;1;Chronos;0;0;406601;300;5;1159;407760;0;1;Chronos;0;0;406901;0;5;859;407760;;;;;;;;;;;;;;;;;;;
EXP2.2_290421;1009;1;Chronos;<ChronosDeviceInfo><FriendlyName>MyChronos</FriendlyName><DeviceIndex>1</DeviceIndex><SerialNumber>CHR-04301-1186</SerialNumber><EBNVersion>3.0.3.80</EBNVersion><FirmwareVersion>1.33</FirmwareVersion><APIVersion>1.33</APIVersion><USBHostControllerVersion>2.0</USBHostControllerVersion><USBConnectionRoute>USB#ROOT_HUB20#4&9bd2e8a&0#{f18a0e88-c30c-11d0-8815-00a0c906bed8} + USB#VID_8087&PID_0024#5&3026c139&0&1#{f18a0e88-c30c-11d0-8815-00a0c906bed8}(1) + VID_2266&PID_0007(7)</USBConnectionRoute></ChronosDeviceInfo>;"<?xml version=""1.0""?>\n<Clock xmlns:dt=""urn:schemas-microsoft-com:datatypes""><Description dt:dt=""string"">E-Prime Primary Realtime Clock</Description><StartTime><Timestamp dt:dt=""int"">0</Timestamp><DateUtc dt:dt=""string"">2021-05-03T11:08:54Z</DateUtc></StartTime><FrequencyChanges><FrequencyChange><Frequency dt:dt=""r8"">2435566</Frequency><Timestamp dt:dt=""r8"">37953401795</Timestamp><Current dt:dt=""r8"">0</Current><DateUtc dt:dt=""string"">2021-05-03T11:08:54Z</DateUtc></FrequencyChange></FrequencyChanges></Clock>\n";EXP2.2_290421-1009-1;60.024;1.0.0.357;1;Chronos;-700867185;Full;3.0.3.80;3.0.3.80;05/03/2021;03/05/2021 11:08;13:08:54;3.0.3.82;2;Chronos;;2;1;2;TESTVV;Generalbloc;;;;pretest;Chronos;5;5;VV_290421/910.png;8;1;5;10;blocVVstim;listVVTrial;;;;Chronos;0;;0;-1;409283;200;;0;0;0;5;Chronos;0;0;409483;300;1;627;410110;0;5;Chronos;0;0;409783;0;1;327;410110;;;;;;;;;;;;;;;;;;;
EXP2.2_290421;1009;1;Chronos;<ChronosDeviceInfo><FriendlyName>MyChronos</FriendlyName><DeviceIndex>1</DeviceIndex><SerialNumber>CHR-04301-1186</SerialNumber><EBNVersion>3.0.3.80</EBNVersion><FirmwareVersion>1.33</FirmwareVersion><APIVersion>1.33</APIVersion><USBHostControllerVersion>2.0</USBHostControllerVersion><USBConnectionRoute>USB#ROOT_HUB20#4&9bd2e8a&0#{f18a0e88-c30c-11d0-8815-00a0c906bed8} + USB#VID_8087&PID_0024#5&3026c139&0&1#{f18a0e88-c30c-11d0-8815-00a0c906bed8}(1) + VID_2266&PID_0007(7)</USBConnectionRoute></ChronosDeviceInfo>;"<?xml version=""1.0""?>\n<Clock xmlns:dt=""urn:schemas-microsoft-com:datatypes""><Description dt:dt=""string"">E-Prime Primary Realtime Clock</Description><StartTime><Timestamp dt:dt=""int"">0</Timestamp><DateUtc dt:dt=""string"">2021-05-03T11:08:54Z</DateUtc></StartTime><FrequencyChanges><FrequencyChange><Frequency dt:dt=""r8"">2435566</Frequency><Timestamp dt:dt=""r8"">37953401795</Timestamp><Current dt:dt=""r8"">0</Current><DateUtc dt:dt=""string"">2021-05-03T11:08:54Z</DateUtc></FrequencyChange></FrequencyChanges></Clock>\n";EXP2.2_290421-1009-1;60.024;1.0.0.357;1;Chronos;-700867185;Full;3.0.3.80;3.0.3.80;05/03/2021;03/05/2021 11:08;13:08:54;3.0.3.82;2;Chronos;;2;1;2;TESTVV;Generalbloc;;;;pretest;Chronos;6;5;VV_290421/925.png;11;1;6;25;blocVVstim;listVVTrial;;;;Chronos;0;;0;-1;411632;200;;0;0;0;5;Chronos;0;0;411832;300;1;1099;412931;0;5;Chronos;0;0;412132;0;1;799;412931;;;;;;;;;;;;;;;;;;;
EXP2.2_290421;1009;1;Chronos;<ChronosDeviceInfo><FriendlyName>MyChronos</FriendlyName><DeviceIndex>1</DeviceIndex><SerialNumber>CHR-04301-1186</SerialNumber><EBNVersion>3.0.3.80</EBNVersion><FirmwareVersion>1.33</FirmwareVersion><APIVersion>1.33</APIVersion><USBHostControllerVersion>2.0</USBHostControllerVersion><USBConnectionRoute>USB#ROOT_HUB20#4&9bd2e8a&0#{f18a0e88-c30c-11d0-8815-00a0c906bed8} + USB#VID_8087&PID_0024#5&3026c139&0&1#{f18a0e88-c30c-11d0-8815-00a0c906bed8}(1) + VID_2266&PID_0007(7)</USBConnectionRoute></ChronosDeviceInfo>;"<?xml version=""1.0""?>\n<Clock xmlns:dt=""urn:schemas-microsoft-com:datatypes""><Description dt:dt=""string"">E-Prime Primary Realtime Clock</Description><StartTime><Timestamp dt:dt=""int"">0</Timestamp><DateUtc dt:dt=""string"">2021-05-03T11:08:54Z</DateUtc></StartTime><FrequencyChanges><FrequencyChange><Frequency dt:dt=""r8"">2435566</Frequency><Timestamp dt:dt=""r8"">37953401795</Timestamp><Current dt:dt=""r8"">0</Current><DateUtc dt:dt=""string"">2021-05-03T11:08:54Z</DateUtc></FrequencyChange></FrequencyChanges></Clock>\n";EXP2.2_290421-1009-1;60.024;1.0.0.357;1;Chronos;-700867185;Full;3.0.3.80;3.0.3.80;05/03/2021;03/05/2021 11:08;13:08:54;3.0.3.82;2;Chronos;;2;1;2;TESTVV;Generalbloc;;;;pretest;Chronos;7;5;VV_290421/915.png;9;1;7;15;blocVVstim;listVVTrial;;;;Chronos;0;;0;0;414448;200;;0;0;1;5;Chronos;0;0;414648;300;5;891;415539;1;5;Chronos;0;0;414948;0;5;591;415539;;;;;;;;;;;;;;;;;;;
EXP2.2_290421;1009;1;Chronos;<ChronosDeviceInfo><FriendlyName>MyChronos</FriendlyName><DeviceIndex>1</DeviceIndex><SerialNumber>CHR-04301-1186</SerialNumber><EBNVersion>3.0.3.80</EBNVersion><FirmwareVersion>1.33</FirmwareVersion><APIVersion>1.33</APIVersion><USBHostControllerVersion>2.0</USBHostControllerVersion><USBConnectionRoute>USB#ROOT_HUB20#4&9bd2e8a&0#{f18a0e88-c30c-11d0-8815-00a0c906bed8} + USB#VID_8087&PID_0024#5&3026c139&0&1#{f18a0e88-c30c-11d0-8815-00a0c906bed8}(1) + VID_2266&PID_0007(7)</USBConnectionRoute></ChronosDeviceInfo>;"<?xml version=""1.0""?>\n<Clock xmlns:dt=""urn:schemas-microsoft-com:datatypes""><Description dt:dt=""string"">E-Prime Primary Realtime Clock</Description><StartTime><Timestamp dt:dt=""int"">0</Timestamp><DateUtc dt:dt=""string"">2021-05-03T11:08:54Z</DateUtc></StartTime><FrequencyChanges><FrequencyChange><Frequency dt:dt=""r8"">2435566</Frequency><Timestamp dt:dt=""r8"">37953401795</Timestamp><Current dt:dt=""r8"">0</Current><DateUtc dt:dt=""string"">2021-05-03T11:08:54Z</DateUtc></FrequencyChange></FrequencyChanges></Clock>\n";EXP2.2_290421-1009-1;60.024;1.0.0.357;1;Chronos;-700867185;Full;3.0.3.80;3.0.3.80;05/03/2021;03/05/2021 11:08;13:08:54;3.0.3.82;2;Chronos;;2;1;2;TESTVV;Generalbloc;;;;pretest;Chronos;8;5;VV_290421/920.png;10;1;8;20;blocVVstim;listVVTrial;;;;Chronos;0;;1;-1;417063;200;;0;0;1;5;Chronos;1;0;417263;300;5;1060;418323;1;5;Chronos;0;0;417563;0;5;760;418323;;;;;;;;;;;;;;;;;;;
EXP2.2_290421;1009;1;Chronos;<ChronosDeviceInfo><FriendlyName>MyChronos</FriendlyName><DeviceIndex>1</DeviceIndex><SerialNumber>CHR-04301-1186</SerialNumber><EBNVersion>3.0.3.80</EBNVersion><FirmwareVersion>1.33</FirmwareVersion><APIVersion>1.33</APIVersion><USBHostControllerVersion>2.0</USBHostControllerVersion><USBConnectionRoute>USB#ROOT_HUB20#4&9bd2e8a&0#{f18a0e88-c30c-11d0-8815-00a0c906bed8} + USB#VID_8087&PID_0024#5&3026c139&0&1#{f18a0e88-c30c-11d0-8815-00a0c906bed8}(1) + VID_2266&PID_0007(7)</USBConnectionRoute></ChronosDeviceInfo>;"<?xml version=""1.0""?>\n<Clock xmlns:dt=""urn:schemas-microsoft-com:datatypes""><Description dt:dt=""string"">E-Prime Primary Realtime Clock</Description><StartTime><Timestamp dt:dt=""int"">0</Timestamp><DateUtc dt:dt=""string"">2021-05-03T11:08:54Z</DateUtc></StartTime><FrequencyChanges><FrequencyChange><Frequency dt:dt=""r8"">2435566</Frequency><Timestamp dt:dt=""r8"">37953401795</Timestamp><Current dt:dt=""r8"">0</Current><DateUtc dt:dt=""string"">2021-05-03T11:08:54Z</DateUtc></FrequencyChange></FrequencyChanges></Clock>\n";EXP2.2_290421-1009-1;60.024;1.0.0.357;1;Chronos;-700867185;Full;3.0.3.80;3.0.3.80;05/03/2021;03/05/2021 11:08;13:08:54;3.0.3.82;2;Chronos;;2;1;2;TESTVV;Generalbloc;;;;pretest;Chronos;9;5;VV_290421/925.png;11;1;9;25;blocVVstim;listVVTrial;;;;Chronos;0;;0;0;419846;200;;0;0;0;5;Chronos;0;0;420046;300;1;931;420977;0;5;Chronos;0;0;420346;0;1;631;420977;;;;;;;;;;;;;;;;;;;
EXP2.2_290421;1009;1;Chronos;<ChronosDeviceInfo><FriendlyName>MyChronos</FriendlyName><DeviceIndex>1</DeviceIndex><SerialNumber>CHR-04301-1186</SerialNumber><EBNVersion>3.0.3.80</EBNVersion><FirmwareVersion>1.33</FirmwareVersion><APIVersion>1.33</APIVersion><USBHostControllerVersion>2.0</USBHostControllerVersion><USBConnectionRoute>USB#ROOT_HUB20#4&9bd2e8a&0#{f18a0e88-c30c-11d0-8815-00a0c906bed8} + USB#VID_8087&PID_0024#5&3026c139&0&1#{f18a0e88-c30c-11d0-8815-00a0c906bed8}(1) + VID_2266&PID_0007(7)</USBConnectionRoute></ChronosDeviceInfo>;"<?xml version=""1.0""?>\n<Clock xmlns:dt=""urn:schemas-microsoft-com:datatypes""><Description dt:dt=""string"">E-Prime Primary Realtime Clock</Description><StartTime><Timestamp dt:dt=""int"">0</Timestamp><DateUtc dt:dt=""string"">2021-05-03T11:08:54Z</DateUtc></StartTime><FrequencyChanges><FrequencyChange><Frequency dt:dt=""r8"">2435566</Frequency><Timestamp dt:dt=""r8"">37953401795</Timestamp><Current dt:dt=""r8"">0</Current><DateUtc dt:dt=""string"">2021-05-03T11:08:54Z</DateUtc></FrequencyChange></FrequencyChanges></Clock>\n";EXP2.2_290421-1009-1;60.024;1.0.0.357;1;Chronos;-700867185;Full;3.0.3.80;3.0.3.80;05/03/2021;03/05/2021 11:08;13:08:54;3.0.3.82;2;Chronos;;2;1;2;TESTVV;Generalbloc;;;;pretest;Chronos;10;5;VV_290421/905.png;7;1;10;5;blocVVstim;listVVTrial;;;;Chronos;0;;0;0;422495;200;;0;0;0;5;Chronos;0;0;422695;300;1;1177;423872;0;5;Chronos;0;0;422995;0;1;877;423872;;;;;;;;;;;;;;;;;;;
EXP2.2_290421;1009;1;Chronos;<ChronosDeviceInfo><FriendlyName>MyChronos</FriendlyName><DeviceIndex>1</DeviceIndex><SerialNumber>CHR-04301-1186</SerialNumber><EBNVersion>3.0.3.80</EBNVersion><FirmwareVersion>1.33</FirmwareVersion><APIVersion>1.33</APIVersion><USBHostControllerVersion>2.0</USBHostControllerVersion><USBConnectionRoute>USB#ROOT_HUB20#4&9bd2e8a&0#{f18a0e88-c30c-11d0-8815-00a0c906bed8} + USB#VID_8087&PID_0024#5&3026c139&0&1#{f18a0e88-c30c-11d0-8815-00a0c906bed8}(1) + VID_2266&PID_0007(7)</USBConnectionRoute></ChronosDeviceInfo>;"<?xml version=""1.0""?>\n<Clock xmlns:dt=""urn:schemas-microsoft-com:datatypes""><Description dt:dt=""string"">E-Prime Primary Realtime Clock</Description><StartTime><Timestamp dt:dt=""int"">0</Timestamp><DateUtc dt:dt=""string"">2021-05-03T11:08:54Z</DateUtc></StartTime><FrequencyChanges><FrequencyChange><Frequency dt:dt=""r8"">2435566</Frequency><Timestamp dt:dt=""r8"">37953401795</Timestamp><Current dt:dt=""r8"">0</Current><DateUtc dt:dt=""string"">2021-05-03T11:08:54Z</DateUtc></FrequencyChange></FrequencyChanges></Clock>\n";EXP2.2_290421-1009-1;60.024;1.0.0.357;1;Chronos;-700867185;Full;3.0.3.80;3.0.3.80;05/03/2021;03/05/2021 11:08;13:08:54;3.0.3.82;2;Chronos;;2;1;2;TESTVV;Generalbloc;;;;pretest;Chronos;11;1;VV_290421/875.png;1;1;11;-25;blocVVstim;listVVTrial;;;;Chronos;0;;0;0;425394;200;;0;0;0;1;Chronos;0;0;425594;299;5;868;426462;0;1;Chronos;1;-1;425893;0;5;569;426462;;;;;;;;;;;;;;;;;;;
EXP2.2_290421;1009;1;Chronos;<ChronosDeviceInfo><FriendlyName>MyChronos</FriendlyName><DeviceIndex>1</DeviceIndex><SerialNumber>CHR-04301-1186</SerialNumber><EBNVersion>3.0.3.80</EBNVersion><FirmwareVersion>1.33</FirmwareVersion><APIVersion>1.33</APIVersion><USBHostControllerVersion>2.0</USBHostControllerVersion><USBConnectionRoute>USB#ROOT_HUB20#4&9bd2e8a&0#{f18a0e88-c30c-11d0-8815-00a0c906bed8} + USB#VID_8087&PID_0024#5&3026c139&0&1#{f18a0e88-c30c-11d0-8815-00a0c906bed8}(1) + VID_2266&PID_0007(7)</USBConnectionRoute></ChronosDeviceInfo>;"<?xml version=""1.0""?>\n<Clock xmlns:dt=""urn:schemas-microsoft-com:datatypes""><Description dt:dt=""string"">E-Prime Primary Realtime Clock</Description><StartTime><Timestamp dt:dt=""int"">0</Timestamp><DateUtc dt:dt=""string"">2021-05-03T11:08:54Z</DateUtc></StartTime><FrequencyChanges><FrequencyChange><Frequency dt:dt=""r8"">2435566</Frequency><Timestamp dt:dt=""r8"">37953401795</Timestamp><Current dt:dt=""r8"">0</Current><DateUtc dt:dt=""string"">2021-05-03T11:08:54Z</DateUtc></FrequencyChange></FrequencyChanges></Clock>\n";EXP2.2_290421-1009-1;60.024;1.0.0.357;1;Chronos;-700867185;Full;3.0.3.80;3.0.3.80;05/03/2021;03/05/2021 11:08;13:08:54;3.0.3.82;2;Chronos;;2;1;2;TESTVV;Generalbloc;;;;pretest;Chronos;12;1;VV_290421/880.png;2;1;12;-20;blocVVstim;listVVTrial;;;;Chronos;0;;0;0;427976;200;;0;0;1;1;Chronos;0;0;428176;300;1;985;429161;1;1;Chronos;0;0;428476;0;1;685;429161;;;;;;;;;;;;;;;;;;;
EXP2.2_290421;1009;1;Chronos;<ChronosDeviceInfo><FriendlyName>MyChronos</FriendlyName><DeviceIndex>1</DeviceIndex><SerialNumber>CHR-04301-1186</SerialNumber><EBNVersion>3.0.3.80</EBNVersion><FirmwareVersion>1.33</FirmwareVersion><APIVersion>1.33</APIVersion><USBHostControllerVersion>2.0</USBHostControllerVersion><USBConnectionRoute>USB#ROOT_HUB20#4&9bd2e8a&0#{f18a0e88-c30c-11d0-8815-00a0c906bed8} + USB#VID_8087&PID_0024#5&3026c139&0&1#{f18a0e88-c30c-11d0-8815-00a0c906bed8}(1) + VID_2266&PID_0007(7)</USBConnectionRoute></ChronosDeviceInfo>;"<?xml version=""1.0""?>\n<Clock xmlns:dt=""urn:schemas-microsoft-com:datatypes""><Description dt:dt=""string"">E-Prime Primary Realtime Clock</Description><StartTime><Timestamp dt:dt=""int"">0</Timestamp><DateUtc dt:dt=""string"">2021-05-03T11:08:54Z</DateUtc></StartTime><FrequencyChanges><FrequencyChange><Frequency dt:dt=""r8"">2435566</Frequency><Timestamp dt:dt=""r8"">37953401795</Timestamp><Current dt:dt=""r8"">0</Current><DateUtc dt:dt=""string"">2021-05-03T11:08:54Z</DateUtc></FrequencyChange></FrequencyChanges></Clock>\n";EXP2.2_290421-1009-1;60.024;1.0.0.357;1;Chronos;-700867185;Full;3.0.3.80;3.0.3.80;05/03/2021;03/05/2021 11:08;13:08:54;3.0.3.82;2;Chronos;;2;1;2;TESTVV;Generalbloc;;;;pretest;Chronos;13;5;VV_290421/920.png;10;1;13;20;blocVVstim;listVVTrial;;;;Chronos;0;;0;0;430675;200;;0;0;1;5;Chronos;0;0;430875;300;5;972;431847;1;5;Chronos;0;0;431175;0;5;672;431847;;;;;;;;;;;;;;;;;;;
EXP2.2_290421;1009;1;Chronos;<ChronosDeviceInfo><FriendlyName>MyChronos</FriendlyName><DeviceIndex>1</DeviceIndex><SerialNumber>CHR-04301-1186</SerialNumber><EBNVersion>3.0.3.80</EBNVersion><FirmwareVersion>1.33</FirmwareVersion><APIVersion>1.33</APIVersion><USBHostControllerVersion>2.0</USBHostControllerVersion><USBConnectionRoute>USB#ROOT_HUB20#4&9bd2e8a&0#{f18a0e88-c30c-11d0-8815-00a0c906bed8} + USB#VID_8087&PID_0024#5&3026c139&0&1#{f18a0e88-c30c-11d0-8815-00a0c906bed8}(1) + VID_2266&PID_0007(7)</USBConnectionRoute></ChronosDeviceInfo>;"<?xml version=""1.0""?>\n<Clock xmlns:dt=""urn:schemas-microsoft-com:datatypes""><Description dt:dt=""string"">E-Prime Primary Realtime Clock</Description><StartTime><Timestamp dt:dt=""int"">0</Timestamp><DateUtc dt:dt=""string"">2021-05-03T11:08:54Z</DateUtc></StartTime><FrequencyChanges><FrequencyChange><Frequency dt:dt=""r8"">2435566</Frequency><Timestamp dt:dt=""r8"">37953401795</Timestamp><Current dt:dt=""r8"">0</Current><DateUtc dt:dt=""string"">2021-05-03T11:08:54Z</DateUtc></FrequencyChange></FrequencyChanges></Clock>\n";EXP2.2_290421-1009-1;60.024;1.0.0.357;1;Chronos;-700867185;Full;3.0.3.80;3.0.3.80;05/03/2021;03/05/2021 11:08;13:08:54;3.0.3.82;2;Chronos;;2;1;2;TESTVV;Generalbloc;;;;pretest;Chronos;14;5;VV_290421/910.png;8;1;14;10;blocVVstim;listVVTrial;;;;Chronos;0;;0;0;433374;200;;0;0;0;5;Chronos;0;0;433574;300;1;725;434299;0;5;Chronos;0;0;433874;0;1;425;434299;;;;;;;;;;;;;;;;;;;
EXP2.2_290421;1009;1;Chronos;<ChronosDeviceInfo><FriendlyName>MyChronos</FriendlyName><DeviceIndex>1</DeviceIndex><SerialNumber>CHR-04301-1186</SerialNumber><EBNVersion>3.0.3.80</EBNVersion><FirmwareVersion>1.33</FirmwareVersion><APIVersion>1.33</APIVersion><USBHostControllerVersion>2.0</USBHostControllerVersion><USBConnectionRoute>USB#ROOT_HUB20#4&9bd2e8a&0#{f18a0e88-c30c-11d0-8815-00a0c906bed8} + USB#VID_8087&PID_0024#5&3026c139&0&1#{f18a0e88-c30c-11d0-8815-00a0c906bed8}(1) + VID_2266&PID_0007(7)</USBConnectionRoute></ChronosDeviceInfo>;"<?xml version=""1.0""?>\n<Clock xmlns:dt=""urn:schemas-microsoft-com:datatypes""><Description dt:dt=""string"">E-Prime Primary Realtime Clock</Description><StartTime><Timestamp dt:dt=""int"">0</Timestamp><DateUtc dt:dt=""string"">2021-05-03T11:08:54Z</DateUtc></StartTime><FrequencyChanges><FrequencyChange><Frequency dt:dt=""r8"">2435566</Frequency><Timestamp dt:dt=""r8"">37953401795</Timestamp><Current dt:dt=""r8"">0</Current><DateUtc dt:dt=""string"">2021-05-03T11:08:54Z</DateUtc></FrequencyChange></FrequencyChanges></Clock>\n";EXP2.2_290421-1009-1;60.024;1.0.0.357;1;Chronos;-700867185;Full;3.0.3.80;3.0.3.80;05/03/2021;03/05/2021 11:08;13:08:54;3.0.3.82;2;Chronos;;2;1;2;TESTVV;Generalbloc;;;;pretest;Chronos;15;5;VV_290421/910.png;8;1;15;10;blocVVstim;listVVTrial;;;;Chronos;0;;0;0;435823;200;;0;0;0;5;Chronos;0;0;436023;300;1;694;436717;0;5;Chronos;0;0;436323;0;1;394;436717;;;;;;;;;;;;;;;;;;;
EXP2.2_290421;1009;1;Chronos;<ChronosDeviceInfo><FriendlyName>MyChronos</FriendlyName><DeviceIndex>1</DeviceIndex><SerialNumber>CHR-04301-1186</SerialNumber><EBNVersion>3.0.3.80</EBNVersion><FirmwareVersion>1.33</FirmwareVersion><APIVersion>1.33</APIVersion><USBHostControllerVersion>2.0</USBHostControllerVersion><USBConnectionRoute>USB#ROOT_HUB20#4&9bd2e8a&0#{f18a0e88-c30c-11d0-8815-00a0c906bed8} + USB#VID_8087&PID_0024#5&3026c139&0&1#{f18a0e88-c30c-11d0-8815-00a0c906bed8}(1) + VID_2266&PID_0007(7)</USBConnectionRoute></ChronosDeviceInfo>;"<?xml version=""1.0""?>\n<Clock xmlns:dt=""urn:schemas-microsoft-com:datatypes""><Description dt:dt=""string"">E-Prime Primary Realtime Clock</Description><StartTime><Timestamp dt:dt=""int"">0</Timestamp><DateUtc dt:dt=""string"">2021-05-03T11:08:54Z</DateUtc></StartTime><FrequencyChanges><FrequencyChange><Frequency dt:dt=""r8"">2435566</Frequency><Timestamp dt:dt=""r8"">37953401795</Timestamp><Current dt:dt=""r8"">0</Current><DateUtc dt:dt=""string"">2021-05-03T11:08:54Z</DateUtc></FrequencyChange></FrequencyChanges></Clock>\n";EXP2.2_290421-1009-1;60.024;1.0.0.357;1;Chronos;-700867185;Full;3.0.3.80;3.0.3.80;05/03/2021;03/05/2021 11:08;13:08:54;3.0.3.82;2;Chronos;;2;1;2;TESTVV;Generalbloc;;;;pretest;Chronos;16;5;VV_290421/920.png;10;1;16;20;blocVVstim;listVVTrial;;;;Chronos;0;;0;0;438239;200;;0;0;0;5;Chronos;0;0;438439;299;1;863;439302;0;5;Chronos;1;-1;438738;0;1;564;439302;;;;;;;;;;;;;;;;;;;
EXP2.2_290421;1009;1;Chronos;<ChronosDeviceInfo><FriendlyName>MyChronos</FriendlyName><DeviceIndex>1</DeviceIndex><SerialNumber>CHR-04301-1186</SerialNumber><EBNVersion>3.0.3.80</EBNVersion><FirmwareVersion>1.33</FirmwareVersion><APIVersion>1.33</APIVersion><USBHostControllerVersion>2.0</USBHostControllerVersion><USBConnectionRoute>USB#ROOT_HUB20#4&9bd2e8a&0#{f18a0e88-c30c-11d0-8815-00a0c906bed8} + USB#VID_8087&PID_0024#5&3026c139&0&1#{f18a0e88-c30c-11d0-8815-00a0c906bed8}(1) + VID_2266&PID_0007(7)</USBConnectionRoute></ChronosDeviceInfo>;"<?xml version=""1.0""?>\n<Clock xmlns:dt=""urn:schemas-microsoft-com:datatypes""><Description dt:dt=""string"">E-Prime Primary Realtime Clock</Description><StartTime><Timestamp dt:dt=""int"">0</Timestamp><DateUtc dt:dt=""string"">2021-05-03T11:08:54Z</DateUtc></StartTime><FrequencyChanges><FrequencyChange><Frequency dt:dt=""r8"">2435566</Frequency><Timestamp dt:dt=""r8"">37953401795</Timestamp><Current dt:dt=""r8"">0</Current><DateUtc dt:dt=""string"">2021-05-03T11:08:54Z</DateUtc></FrequencyChange></FrequencyChanges></Clock>\n";EXP2.2_290421-1009-1;60.024;1.0.0.357;1;Chronos;-700867185;Full;3.0.3.80;3.0.3.80;05/03/2021;03/05/2021 11:08;13:08:54;3.0.3.82;2;Chronos;;2;1;2;TESTVV;Generalbloc;;;;pretest;Chronos;17;1;VV_290421/875.png;1;1;17;-25;blocVVstim;listVVTrial;;;;Chronos;0;;0;-1;440821;200;;0;0;1;1;Chronos;0;0;441021;300;1;1158;442179;1;1;Chronos;0;0;441321;0;1;858;442179;;;;;;;;;;;;;;;;;;;
EXP2.2_290421;1009;1;Chronos;<ChronosDeviceInfo><FriendlyName>MyChronos</FriendlyName><DeviceIndex>1</DeviceIndex><SerialNumber>CHR-04301-1186</SerialNumber><EBNVersion>3.0.3.80</EBNVersion><FirmwareVersion>1.33</FirmwareVersion><APIVersion>1.33</APIVersion><USBHostControllerVersion>2.0</USBHostControllerVersion><USBConnectionRoute>USB#ROOT_HUB20#4&9bd2e8a&0#{f18a0e88-c30c-11d0-8815-00a0c906bed8} + USB#VID_8087&PID_0024#5&3026c139&0&1#{f18a0e88-c30c-11d0-8815-00a0c906bed8}(1) + VID_2266&PID_0007(7)</USBConnectionRoute></ChronosDeviceInfo>;"<?xml version=""1.0""?>\n<Clock xmlns:dt=""urn:schemas-microsoft-com:datatypes""><Description dt:dt=""string"">E-Prime Primary Realtime Clock</Description><StartTime><Timestamp dt:dt=""int"">0</Timestamp><DateUtc dt:dt=""string"">2021-05-03T11:08:54Z</DateUtc></StartTime><FrequencyChanges><FrequencyChange><Frequency dt:dt=""r8"">2435566</Frequency><Timestamp dt:dt=""r8"">37953401795</Timestamp><Current dt:dt=""r8"">0</Current><DateUtc dt:dt=""string"">2021-05-03T11:08:54Z</DateUtc></FrequencyChange></FrequencyChanges></Clock>\n";EXP2.2_290421-1009-1;60.024;1.0.0.357;1;Chronos;-700867185;Full;3.0.3.80;3.0.3.80;05/03/2021;03/05/2021 11:08;13:08:54;3.0.3.82;2;Chronos;;2;1;2;TESTVV;Generalbloc;;;;pretest;Chronos;18;5;VV_290421/915.png;9;1;18;15;blocVVstim;listVVTrial;;;;Chronos;0;;0;-1;443703;200;;0;0;0;5;Chronos;0;0;443903;300;1;1062;444965;0;5;Chronos;0;0;444203;0;1;762;444965;;;;;;;;;;;;;;;;;;;
EXP2.2_290421;1009;1;Chronos;<ChronosDeviceInfo><FriendlyName>MyChronos</FriendlyName><DeviceIndex>1</DeviceIndex><SerialNumber>CHR-04301-1186</SerialNumber><EBNVersion>3.0.3.80</EBNVersion><FirmwareVersion>1.33</FirmwareVersion><APIVersion>1.33</APIVersion><USBHostControllerVersion>2.0</USBHostControllerVersion><USBConnectionRoute>USB#ROOT_HUB20#4&9bd2e8a&0#{f18a0e88-c30c-11d0-8815-00a0c906bed8} + USB#VID_8087&PID_0024#5&3026c139&0&1#{f18a0e88-c30c-11d0-8815-00a0c906bed8}(1) + VID_2266&PID_0007(7)</USBConnectionRoute></ChronosDeviceInfo>;"<?xml version=""1.0""?>\n<Clock xmlns:dt=""urn:schemas-microsoft-com:datatypes""><Description dt:dt=""string"">E-Prime Primary Realtime Clock</Description><StartTime><Timestamp dt:dt=""int"">0</Timestamp><DateUtc dt:dt=""string"">2021-05-03T11:08:54Z</DateUtc></StartTime><FrequencyChanges><FrequencyChange><Frequency dt:dt=""r8"">2435566</Frequency><Timestamp dt:dt=""r8"">37953401795</Timestamp><Current dt:dt=""r8"">0</Current><DateUtc dt:dt=""string"">2021-05-03T11:08:54Z</DateUtc></FrequencyChange></FrequencyChanges></Clock>\n";EXP2.2_290421-1009-1;60.024;1.0.0.357;1;Chronos;-700867185;Full;3.0.3.80;3.0.3.80;05/03/2021;03/05/2021 11:08;13:08:54;3.0.3.82;2;Chronos;;2;1;2;TESTVV;Generalbloc;;;;pretest;Chronos;19;1;VV_290421/875.png;1;1;19;-25;blocVVstim;listVVTrial;;;;Chronos;0;;1;-1;446485;200;;0;0;0;1;Chronos;1;0;446685;300;5;798;447483;0;1;Chronos;0;0;446985;0;5;498;447483;;;;;;;;;;;;;;;;;;;
EXP2.2_290421;1009;1;Chronos;<ChronosDeviceInfo><FriendlyName>MyChronos</FriendlyName><DeviceIndex>1</DeviceIndex><SerialNumber>CHR-04301-1186</SerialNumber><EBNVersion>3.0.3.80</EBNVersion><FirmwareVersion>1.33</FirmwareVersion><APIVersion>1.33</APIVersion><USBHostControllerVersion>2.0</USBHostControllerVersion><USBConnectionRoute>USB#ROOT_HUB20#4&9bd2e8a&0#{f18a0e88-c30c-11d0-8815-00a0c906bed8} + USB#VID_8087&PID_0024#5&3026c139&0&1#{f18a0e88-c30c-11d0-8815-00a0c906bed8}(1) + VID_2266&PID_0007(7)</USBConnectionRoute></ChronosDeviceInfo>;"<?xml version=""1.0""?>\n<Clock xmlns:dt=""urn:schemas-microsoft-com:datatypes""><Description dt:dt=""string"">E-Prime Primary Realtime Clock</Description><StartTime><Timestamp dt:dt=""int"">0</Timestamp><DateUtc dt:dt=""string"">2021-05-03T11:08:54Z</DateUtc></StartTime><FrequencyChanges><FrequencyChange><Frequency dt:dt=""r8"">2435566</Frequency><Timestamp dt:dt=""r8"">37953401795</Timestamp><Current dt:dt=""r8"">0</Current><DateUtc dt:dt=""string"">2021-05-03T11:08:54Z</DateUtc></FrequencyChange></FrequencyChanges></Clock>\n";EXP2.2_290421-1009-1;60.024;1.0.0.357;1;Chronos;-700867185;Full;3.0.3.80;3.0.3.80;05/03/2021;03/05/2021 11:08;13:08:54;3.0.3.82;2;Chronos;;2;1;2;TESTVV;Generalbloc;;;;pretest;Chronos;20;5;VV_290421/925.png;11;1;20;25;blocVVstim;listVVTrial;;;;Chronos;0;;0;-1;449001;200;;0;0;0;5;Chronos;0;0;449201;300;1;707;449908;0;5;Chronos;0;0;449501;0;1;407;449908;;;;;;;;;;;;;;;;;;;
EXP2.2_290421;1009;1;Chronos;<ChronosDeviceInfo><FriendlyName>MyChronos</FriendlyName><DeviceIndex>1</DeviceIndex><SerialNumber>CHR-04301-1186</SerialNumber><EBNVersion>3.0.3.80</EBNVersion><FirmwareVersion>1.33</FirmwareVersion><APIVersion>1.33</APIVersion><USBHostControllerVersion>2.0</USBHostControllerVersion><USBConnectionRoute>USB#ROOT_HUB20#4&9bd2e8a&0#{f18a0e88-c30c-11d0-8815-00a0c906bed8} + USB#VID_8087&PID_0024#5&3026c139&0&1#{f18a0e88-c30c-11d0-8815-00a0c906bed8}(1) + VID_2266&PID_0007(7)</USBConnectionRoute></ChronosDeviceInfo>;"<?xml version=""1.0""?>\n<Clock xmlns:dt=""urn:schemas-microsoft-com:datatypes""><Description dt:dt=""string"">E-Prime Primary Realtime Clock</Description><StartTime><Timestamp dt:dt=""int"">0</Timestamp><DateUtc dt:dt=""string"">2021-05-03T11:08:54Z</DateUtc></StartTime><FrequencyChanges><FrequencyChange><Frequency dt:dt=""r8"">2435566</Frequency><Timestamp dt:dt=""r8"">37953401795</Timestamp><Current dt:dt=""r8"">0</Current><DateUtc dt:dt=""string"">2021-05-03T11:08:54Z</DateUtc></FrequencyChange></FrequencyChanges></Clock>\n";EXP2.2_290421-1009-1;60.024;1.0.0.357;1;Chronos;-700867185;Full;3.0.3.80;3.0.3.80;05/03/2021;03/05/2021 11:08;13:08:54;3.0.3.82;2;Chronos;;2;1;2;TESTVV;Generalbloc;;;;pretest;Chronos;21;5;VV_290421/915.png;9;1;21;15;blocVVstim;listVVTrial;;;;Chronos;0;;0;0;451434;199;;0;0;0;5;Chronos;1;-1;451633;300;1;1207;452840;0;5;Chronos;1;0;451933;0;1;907;452840;;;;;;;;;;;;;;;;;;;
EXP2.2_290421;1009;1;Chronos;<ChronosDeviceInfo><FriendlyName>MyChronos</FriendlyName><DeviceIndex>1</DeviceIndex><SerialNumber>CHR-04301-1186</SerialNumber><EBNVersion>3.0.3.80</EBNVersion><FirmwareVersion>1.33</FirmwareVersion><APIVersion>1.33</APIVersion><USBHostControllerVersion>2.0</USBHostControllerVersion><USBConnectionRoute>USB#ROOT_HUB20#4&9bd2e8a&0#{f18a0e88-c30c-11d0-8815-00a0c906bed8} + USB#VID_8087&PID_0024#5&3026c139&0&1#{f18a0e88-c30c-11d0-8815-00a0c906bed8}(1) + VID_2266&PID_0007(7)</USBConnectionRoute></ChronosDeviceInfo>;"<?xml version=""1.0""?>\n<Clock xmlns:dt=""urn:schemas-microsoft-com:datatypes""><Description dt:dt=""string"">E-Prime Primary Realtime Clock</Description><StartTime><Timestamp dt:dt=""int"">0</Timestamp><DateUtc dt:dt=""string"">2021-05-03T11:08:54Z</DateUtc></StartTime><FrequencyChanges><FrequencyChange><Frequency dt:dt=""r8"">2435566</Frequency><Timestamp dt:dt=""r8"">37953401795</Timestamp><Current dt:dt=""r8"">0</Current><DateUtc dt:dt=""string"">2021-05-03T11:08:54Z</DateUtc></FrequencyChange></FrequencyChanges></Clock>\n";EXP2.2_290421-1009-1;60.024;1.0.0.357;1;Chronos;-700867185;Full;3.0.3.80;3.0.3.80;05/03/2021;03/05/2021 11:08;13:08:54;3.0.3.82;2;Chronos;;2;1;2;TESTVV;Generalbloc;;;;pretest;Chronos;22;15;VV_290421/900.png;6;1;22;0;blocVVstim;listVVTrial;;;;Chronos;0;;0;0;454366;200;;0;0;0;15;Chronos;0;0;454566;300;5;794;455360;0;15;Chronos;0;0;454866;0;5;494;455360;;;;;;;;;;;;;;;;;;;
EXP2.2_290421;1009;1;Chronos;<ChronosDeviceInfo><FriendlyName>MyChronos</FriendlyName><DeviceIndex>1</DeviceIndex><SerialNumber>CHR-04301-1186</SerialNumber><EBNVersion>3.0.3.80</EBNVersion><FirmwareVersion>1.33</FirmwareVersion><APIVersion>1.33</APIVersion><USBHostControllerVersion>2.0</USBHostControllerVersion><USBConnectionRoute>USB#ROOT_HUB20#4&9bd2e8a&0#{f18a0e88-c30c-11d0-8815-00a0c906bed8} + USB#VID_8087&PID_0024#5&3026c139&0&1#{f18a0e88-c30c-11d0-8815-00a0c906bed8}(1) + VID_2266&PID_0007(7)</USBConnectionRoute></ChronosDeviceInfo>;"<?xml version=""1.0""?>\n<Clock xmlns:dt=""urn:schemas-microsoft-com:datatypes""><Description dt:dt=""string"">E-Prime Primary Realtime Clock</Description><StartTime><Timestamp dt:dt=""int"">0</Timestamp><DateUtc dt:dt=""string"">2021-05-03T11:08:54Z</DateUtc></StartTime><FrequencyChanges><FrequencyChange><Frequency dt:dt=""r8"">2435566</Frequency><Timestamp dt:dt=""r8"">37953401795</Timestamp><Current dt:dt=""r8"">0</Current><DateUtc dt:dt=""string"">2021-05-03T11:08:54Z</DateUtc></FrequencyChange></FrequencyChanges></Clock>\n";EXP2.2_290421-1009-1;60.024;1.0.0.357;1;Chronos;-700867185;Full;3.0.3.80;3.0.3.80;05/03/2021;03/05/2021 11:08;13:08:54;3.0.3.82;2;Chronos;;2;1;2;TESTVV;Generalbloc;;;;pretest;Chronos;23;1;VV_290421/885.png;3;1;23;-15;blocVVstim;listVVTrial;;;;Chronos;0;;1;-1;456881;200;;0;0;1;1;Chronos;0;0;457081;300;1;877;457958;1;1;Chronos;0;0;457381;0;1;577;457958;;;;;;;;;;;;;;;;;;;
EXP2.2_290421;1009;1;Chronos;<ChronosDeviceInfo><FriendlyName>MyChronos</FriendlyName><DeviceIndex>1</DeviceIndex><SerialNumber>CHR-04301-1186</SerialNumber><EBNVersion>3.0.3.80</EBNVersion><FirmwareVersion>1.33</FirmwareVersion><APIVersion>1.33</APIVersion><USBHostControllerVersion>2.0</USBHostControllerVersion><USBConnectionRoute>USB#ROOT_HUB20#4&9bd2e8a&0#{f18a0e88-c30c-11d0-8815-00a0c906bed8} + USB#VID_8087&PID_0024#5&3026c139&0&1#{f18a0e88-c30c-11d0-8815-00a0c906bed8}(1) + VID_2266&PID_0007(7)</USBConnectionRoute></ChronosDeviceInfo>;"<?xml version=""1.0""?>\n<Clock xmlns:dt=""urn:schemas-microsoft-com:datatypes""><Description dt:dt=""string"">E-Prime Primary Realtime Clock</Description><StartTime><Timestamp dt:dt=""int"">0</Timestamp><DateUtc dt:dt=""string"">2021-05-03T11:08:54Z</DateUtc></StartTime><FrequencyChanges><FrequencyChange><Frequency dt:dt=""r8"">2435566</Frequency><Timestamp dt:dt=""r8"">37953401795</Timestamp><Current dt:dt=""r8"">0</Current><DateUtc dt:dt=""string"">2021-05-03T11:08:54Z</DateUtc></FrequencyChange></FrequencyChanges></Clock>\n";EXP2.2_290421-1009-1;60.024;1.0.0.357;1;Chronos;-700867185;Full;3.0.3.80;3.0.3.80;05/03/2021;03/05/2021 11:08;13:08:54;3.0.3.82;2;Chronos;;2;1;2;TESTVV;Generalbloc;;;;pretest;Chronos;24;1;VV_290421/885.png;3;1;24;-15;blocVVstim;listVVTrial;;;;Chronos;0;;1;-1;459480;200;;0;0;1;1;Chronos;1;0;459680;300;1;1109;460789;1;1;Chronos;0;0;459980;0;1;809;460789;;;;;;;;;;;;;;;;;;;
EXP2.2_290421;1009;1;Chronos;<ChronosDeviceInfo><FriendlyName>MyChronos</FriendlyName><DeviceIndex>1</DeviceIndex><SerialNumber>CHR-04301-1186</SerialNumber><EBNVersion>3.0.3.80</EBNVersion><FirmwareVersion>1.33</FirmwareVersion><APIVersion>1.33</APIVersion><USBHostControllerVersion>2.0</USBHostControllerVersion><USBConnectionRoute>USB#ROOT_HUB20#4&9bd2e8a&0#{f18a0e88-c30c-11d0-8815-00a0c906bed8} + USB#VID_8087&PID_0024#5&3026c139&0&1#{f18a0e88-c30c-11d0-8815-00a0c906bed8}(1) + VID_2266&PID_0007(7)</USBConnectionRoute></ChronosDeviceInfo>;"<?xml version=""1.0""?>\n<Clock xmlns:dt=""urn:schemas-microsoft-com:datatypes""><Description dt:dt=""string"">E-Prime Primary Realtime Clock</Description><StartTime><Timestamp dt:dt=""int"">0</Timestamp><DateUtc dt:dt=""string"">2021-05-03T11:08:54Z</DateUtc></StartTime><FrequencyChanges><FrequencyChange><Frequency dt:dt=""r8"">2435566</Frequency><Timestamp dt:dt=""r8"">37953401795</Timestamp><Current dt:dt=""r8"">0</Current><DateUtc dt:dt=""string"">2021-05-03T11:08:54Z</DateUtc></FrequencyChange></FrequencyChanges></Clock>\n";EXP2.2_290421-1009-1;60.024;1.0.0.357;1;Chronos;-700867185;Full;3.0.3.80;3.0.3.80;05/03/2021;03/05/2021 11:08;13:08:54;3.0.3.82;2;Chronos;;2;1;2;TESTVV;Generalbloc;;;;pretest;Chronos;25;1;VV_290421/895.png;5;1;25;-5;blocVVstim;listVVTrial;;;;Chronos;0;;0;0;462313;200;;0;0;1;1;Chronos;0;0;462513;299;1;846;463359;1;1;Chronos;1;-1;462812;0;1;547;463359;;;;;;;;;;;;;;;;;;;
EXP2.2_290421;1009;1;Chronos;<ChronosDeviceInfo><FriendlyName>MyChronos</FriendlyName><DeviceIndex>1</DeviceIndex><SerialNumber>CHR-04301-1186</SerialNumber><EBNVersion>3.0.3.80</EBNVersion><FirmwareVersion>1.33</FirmwareVersion><APIVersion>1.33</APIVersion><USBHostControllerVersion>2.0</USBHostControllerVersion><USBConnectionRoute>USB#ROOT_HUB20#4&9bd2e8a&0#{f18a0e88-c30c-11d0-8815-00a0c906bed8} + USB#VID_8087&PID_0024#5&3026c139&0&1#{f18a0e88-c30c-11d0-8815-00a0c906bed8}(1) + VID_2266&PID_0007(7)</USBConnectionRoute></ChronosDeviceInfo>;"<?xml version=""1.0""?>\n<Clock xmlns:dt=""urn:schemas-microsoft-com:datatypes""><Description dt:dt=""string"">E-Prime Primary Realtime Clock</Description><StartTime><Timestamp dt:dt=""int"">0</Timestamp><DateUtc dt:dt=""string"">2021-05-03T11:08:54Z</DateUtc></StartTime><FrequencyChanges><FrequencyChange><Frequency dt:dt=""r8"">2435566</Frequency><Timestamp dt:dt=""r8"">37953401795</Timestamp><Current dt:dt=""r8"">0</Current><DateUtc dt:dt=""string"">2021-05-03T11:08:54Z</DateUtc></FrequencyChange></FrequencyChanges></Clock>\n";EXP2.2_290421-1009-1;60.024;1.0.0.357;1;Chronos;-700867185;Full;3.0.3.80;3.0.3.80;05/03/2021;03/05/2021 11:08;13:08:54;3.0.3.82;2;Chronos;;2;1;2;TESTVV;Generalbloc;;;;pretest;Chronos;26;1;VV_290421/890.png;4;1;26;-10;blocVVstim;listVVTrial;;;;Chronos;0;;0;-1;464878;200;;0;0;1;1;Chronos;0;0;465078;300;1;1088;466166;1;1;Chronos;0;0;465378;0;1;788;466166;;;;;;;;;;;;;;;;;;;
EXP2.2_290421;1009;1;Chronos;<ChronosDeviceInfo><FriendlyName>MyChronos</FriendlyName><DeviceIndex>1</DeviceIndex><SerialNumber>CHR-04301-1186</SerialNumber><EBNVersion>3.0.3.80</EBNVersion><FirmwareVersion>1.33</FirmwareVersion><APIVersion>1.33</APIVersion><USBHostControllerVersion>2.0</USBHostControllerVersion><USBConnectionRoute>USB#ROOT_HUB20#4&9bd2e8a&0#{f18a0e88-c30c-11d0-8815-00a0c906bed8} + USB#VID_8087&PID_0024#5&3026c139&0&1#{f18a0e88-c30c-11d0-8815-00a0c906bed8}(1) + VID_2266&PID_0007(7)</USBConnectionRoute></ChronosDeviceInfo>;"<?xml version=""1.0""?>\n<Clock xmlns:dt=""urn:schemas-microsoft-com:datatypes""><Description dt:dt=""string"">E-Prime Primary Realtime Clock</Description><StartTime><Timestamp dt:dt=""int"">0</Timestamp><DateUtc dt:dt=""string"">2021-05-03T11:08:54Z</DateUtc></StartTime><FrequencyChanges><FrequencyChange><Frequency dt:dt=""r8"">2435566</Frequency><Timestamp dt:dt=""r8"">37953401795</Timestamp><Current dt:dt=""r8"">0</Current><DateUtc dt:dt=""string"">2021-05-03T11:08:54Z</DateUtc></FrequencyChange></FrequencyChanges></Clock>\n";EXP2.2_290421-1009-1;60.024;1.0.0.357;1;Chronos;-700867185;Full;3.0.3.80;3.0.3.80;05/03/2021;03/05/2021 11:08;13:08:54;3.0.3.82;2;Chronos;;2;1;2;TESTVV;Generalbloc;;;;pretest;Chronos;27;1;VV_290421/895.png;5;1;27;-5;blocVVstim;listVVTrial;;;;Chronos;0;;0;-1;467677;200;;0;0;1;1;Chronos;0;0;467877;300;1;948;468825;1;1;Chronos;0;0;468177;0;1;648;468825;;;;;;;;;;;;;;;;;;;
EXP2.2_290421;1009;1;Chronos;<ChronosDeviceInfo><FriendlyName>MyChronos</FriendlyName><DeviceIndex>1</DeviceIndex><SerialNumber>CHR-04301-1186</SerialNumber><EBNVersion>3.0.3.80</EBNVersion><FirmwareVersion>1.33</FirmwareVersion><APIVersion>1.33</APIVersion><USBHostControllerVersion>2.0</USBHostControllerVersion><USBConnectionRoute>USB#ROOT_HUB20#4&9bd2e8a&0#{f18a0e88-c30c-11d0-8815-00a0c906bed8} + USB#VID_8087&PID_0024#5&3026c139&0&1#{f18a0e88-c30c-11d0-8815-00a0c906bed8}(1) + VID_2266&PID_0007(7)</USBConnectionRoute></ChronosDeviceInfo>;"<?xml version=""1.0""?>\n<Clock xmlns:dt=""urn:schemas-microsoft-com:datatypes""><Description dt:dt=""string"">E-Prime Primary Realtime Clock</Description><StartTime><Timestamp dt:dt=""int"">0</Timestamp><DateUtc dt:dt=""string"">2021-05-03T11:08:54Z</DateUtc></StartTime><FrequencyChanges><FrequencyChange><Frequency dt:dt=""r8"">2435566</Frequency><Timestamp dt:dt=""r8"">37953401795</Timestamp><Current dt:dt=""r8"">0</Current><DateUtc dt:dt=""string"">2021-05-03T11:08:54Z</DateUtc></FrequencyChange></FrequencyChanges></Clock>\n";EXP2.2_290421-1009-1;60.024;1.0.0.357;1;Chronos;-700867185;Full;3.0.3.80;3.0.3.80;05/03/2021;03/05/2021 11:08;13:08:54;3.0.3.82;2;Chronos;;2;1;2;TESTVV;Generalbloc;;;;pretest;Chronos;28;15;VV_290421/900.png;6;1;28;0;blocVVstim;listVVTrial;;;;Chronos;0;;0;0;470343;200;;0;0;0;15;Chronos;0;0;470543;300;1;860;471403;0;15;Chronos;0;0;470843;0;1;560;471403;;;;;;;;;;;;;;;;;;;
EXP2.2_290421;1009;1;Chronos;<ChronosDeviceInfo><FriendlyName>MyChronos</FriendlyName><DeviceIndex>1</DeviceIndex><SerialNumber>CHR-04301-1186</SerialNumber><EBNVersion>3.0.3.80</EBNVersion><FirmwareVersion>1.33</FirmwareVersion><APIVersion>1.33</APIVersion><USBHostControllerVersion>2.0</USBHostControllerVersion><USBConnectionRoute>USB#ROOT_HUB20#4&9bd2e8a&0#{f18a0e88-c30c-11d0-8815-00a0c906bed8} + USB#VID_8087&PID_0024#5&3026c139&0&1#{f18a0e88-c30c-11d0-8815-00a0c906bed8}(1) + VID_2266&PID_0007(7)</USBConnectionRoute></ChronosDeviceInfo>;"<?xml version=""1.0""?>\n<Clock xmlns:dt=""urn:schemas-microsoft-com:datatypes""><Description dt:dt=""string"">E-Prime Primary Realtime Clock</Description><StartTime><Timestamp dt:dt=""int"">0</Timestamp><DateUtc dt:dt=""string"">2021-05-03T11:08:54Z</DateUtc></StartTime><FrequencyChanges><FrequencyChange><Frequency dt:dt=""r8"">2435566</Frequency><Timestamp dt:dt=""r8"">37953401795</Timestamp><Current dt:dt=""r8"">0</Current><DateUtc dt:dt=""string"">2021-05-03T11:08:54Z</DateUtc></FrequencyChange></FrequencyChanges></Clock>\n";EXP2.2_290421-1009-1;60.024;1.0.0.357;1;Chronos;-700867185;Full;3.0.3.80;3.0.3.80;05/03/2021;03/05/2021 11:08;13:08:54;3.0.3.82;2;Chronos;;2;1;2;TESTVV;Generalbloc;;;;pretest;Chronos;29;1;VV_290421/890.png;4;1;29;-10;blocVVstim;listVVTrial;;;;Chronos;0;;0;-1;472925;200;;0;0;1;1;Chronos;0;0;473125;300;1;1303;474428;1;1;Chronos;0;0;473425;0;1;1003;474428;;;;;;;;;;;;;;;;;;;
EXP2.2_290421;1009;1;Chronos;<ChronosDeviceInfo><FriendlyName>MyChronos</FriendlyName><DeviceIndex>1</DeviceIndex><SerialNumber>CHR-04301-1186</SerialNumber><EBNVersion>3.0.3.80</EBNVersion><FirmwareVersion>1.33</FirmwareVersion><APIVersion>1.33</APIVersion><USBHostControllerVersion>2.0</USBHostControllerVersion><USBConnectionRoute>USB#ROOT_HUB20#4&9bd2e8a&0#{f18a0e88-c30c-11d0-8815-00a0c906bed8} + USB#VID_8087&PID_0024#5&3026c139&0&1#{f18a0e88-c30c-11d0-8815-00a0c906bed8}(1) + VID_2266&PID_0007(7)</USBConnectionRoute></ChronosDeviceInfo>;"<?xml version=""1.0""?>\n<Clock xmlns:dt=""urn:schemas-microsoft-com:datatypes""><Description dt:dt=""string"">E-Prime Primary Realtime Clock</Description><StartTime><Timestamp dt:dt=""int"">0</Timestamp><DateUtc dt:dt=""string"">2021-05-03T11:08:54Z</DateUtc></StartTime><FrequencyChanges><FrequencyChange><Frequency dt:dt=""r8"">2435566</Frequency><Timestamp dt:dt=""r8"">37953401795</Timestamp><Current dt:dt=""r8"">0</Current><DateUtc dt:dt=""string"">2021-05-03T11:08:54Z</DateUtc></FrequencyChange></FrequencyChanges></Clock>\n";EXP2.2_290421-1009-1;60.024;1.0.0.357;1;Chronos;-700867185;Full;3.0.3.80;3.0.3.80;05/03/2021;03/05/2021 11:08;13:08:54;3.0.3.82;2;Chronos;;2;1;2;TESTVV;Generalbloc;;;;pretest;Chronos;30;1;VV_290421/885.png;3;1;30;-15;blocVVstim;listVVTrial;;;;Chronos;0;;1;-1;475957;200;;0;0;0;1;Chronos;0;0;476157;300;5;1069;477226;0;1;Chronos;0;0;476457;0;5;769;477226;;;;;;;;;;;;;;;;;;;
EXP2.2_290421;1009;1;Chronos;<ChronosDeviceInfo><FriendlyName>MyChronos</FriendlyName><DeviceIndex>1</DeviceIndex><SerialNumber>CHR-04301-1186</SerialNumber><EBNVersion>3.0.3.80</EBNVersion><FirmwareVersion>1.33</FirmwareVersion><APIVersion>1.33</APIVersion><USBHostControllerVersion>2.0</USBHostControllerVersion><USBConnectionRoute>USB#ROOT_HUB20#4&9bd2e8a&0#{f18a0e88-c30c-11d0-8815-00a0c906bed8} + USB#VID_8087&PID_0024#5&3026c139&0&1#{f18a0e88-c30c-11d0-8815-00a0c906bed8}(1) + VID_2266&PID_0007(7)</USBConnectionRoute></ChronosDeviceInfo>;"<?xml version=""1.0""?>\n<Clock xmlns:dt=""urn:schemas-microsoft-com:datatypes""><Description dt:dt=""string"">E-Prime Primary Realtime Clock</Description><StartTime><Timestamp dt:dt=""int"">0</Timestamp><DateUtc dt:dt=""string"">2021-05-03T11:08:54Z</DateUtc></StartTime><FrequencyChanges><FrequencyChange><Frequency dt:dt=""r8"">2435566</Frequency><Timestamp dt:dt=""r8"">37953401795</Timestamp><Current dt:dt=""r8"">0</Current><DateUtc dt:dt=""string"">2021-05-03T11:08:54Z</DateUtc></FrequencyChange></FrequencyChanges></Clock>\n";EXP2.2_290421-1009-1;60.024;1.0.0.357;1;Chronos;-700867185;Full;3.0.3.80;3.0.3.80;05/03/2021;03/05/2021 11:08;13:08:54;3.0.3.82;2;Chronos;;2;1;2;TESTVV;Generalbloc;;;;pretest;Chronos;31;1;VV_290421/895.png;5;1;31;-5;blocVVstim;listVVTrial;;;;Chronos;0;;0;0;478740;200;;0;0;0;1;Chronos;0;0;478940;299;5;1344;480284;0;1;Chronos;1;-1;479239;0;5;1045;480284;;;;;;;;;;;;;;;;;;;
EXP2.2_290421;1009;1;Chronos;<ChronosDeviceInfo><FriendlyName>MyChronos</FriendlyName><DeviceIndex>1</DeviceIndex><SerialNumber>CHR-04301-1186</SerialNumber><EBNVersion>3.0.3.80</EBNVersion><FirmwareVersion>1.33</FirmwareVersion><APIVersion>1.33</APIVersion><USBHostControllerVersion>2.0</USBHostControllerVersion><USBConnectionRoute>USB#ROOT_HUB20#4&9bd2e8a&0#{f18a0e88-c30c-11d0-8815-00a0c906bed8} + USB#VID_8087&PID_0024#5&3026c139&0&1#{f18a0e88-c30c-11d0-8815-00a0c906bed8}(1) + VID_2266&PID_0007(7)</USBConnectionRoute></ChronosDeviceInfo>;"<?xml version=""1.0""?>\n<Clock xmlns:dt=""urn:schemas-microsoft-com:datatypes""><Description dt:dt=""string"">E-Prime Primary Realtime Clock</Description><StartTime><Timestamp dt:dt=""int"">0</Timestamp><DateUtc dt:dt=""string"">2021-05-03T11:08:54Z</DateUtc></StartTime><FrequencyChanges><FrequencyChange><Frequency dt:dt=""r8"">2435566</Frequency><Timestamp dt:dt=""r8"">37953401795</Timestamp><Current dt:dt=""r8"">0</Current><DateUtc dt:dt=""string"">2021-05-03T11:08:54Z</DateUtc></FrequencyChange></FrequencyChanges></Clock>\n";EXP2.2_290421-1009-1;60.024;1.0.0.357;1;Chronos;-700867185;Full;3.0.3.80;3.0.3.80;05/03/2021;03/05/2021 11:08;13:08:54;3.0.3.82;2;Chronos;;2;1;2;TESTVV;Generalbloc;;;;pretest;Chronos;32;1;VV_290421/890.png;4;1;32;-10;blocVVstim;listVVTrial;;;;Chronos;0;;0;-1;481805;200;;0;0;1;1;Chronos;0;0;482005;300;1;1133;483138;1;1;Chronos;0;0;482305;0;1;833;483138;;;;;;;;;;;;;;;;;;;
EXP2.2_290421;1009;1;Chronos;<ChronosDeviceInfo><FriendlyName>MyChronos</FriendlyName><DeviceIndex>1</DeviceIndex><SerialNumber>CHR-04301-1186</SerialNumber><EBNVersion>3.0.3.80</EBNVersion><FirmwareVersion>1.33</FirmwareVersion><APIVersion>1.33</APIVersion><USBHostControllerVersion>2.0</USBHostControllerVersion><USBConnectionRoute>USB#ROOT_HUB20#4&9bd2e8a&0#{f18a0e88-c30c-11d0-8815-00a0c906bed8} + USB#VID_8087&PID_0024#5&3026c139&0&1#{f18a0e88-c30c-11d0-8815-00a0c906bed8}(1) + VID_2266&PID_0007(7)</USBConnectionRoute></ChronosDeviceInfo>;"<?xml version=""1.0""?>\n<Clock xmlns:dt=""urn:schemas-microsoft-com:datatypes""><Description dt:dt=""string"">E-Prime Primary Realtime Clock</Description><StartTime><Timestamp dt:dt=""int"">0</Timestamp><DateUtc dt:dt=""string"">2021-05-03T11:08:54Z</DateUtc></StartTime><FrequencyChanges><FrequencyChange><Frequency dt:dt=""r8"">2435566</Frequency><Timestamp dt:dt=""r8"">37953401795</Timestamp><Current dt:dt=""r8"">0</Current><DateUtc dt:dt=""string"">2021-05-03T11:08:54Z</DateUtc></FrequencyChange></FrequencyChanges></Clock>\n";EXP2.2_290421-1009-1;60.024;1.0.0.357;1;Chronos;-700867185;Full;3.0.3.80;3.0.3.80;05/03/2021;03/05/2021 11:08;13:08:54;3.0.3.82;2;Chronos;;2;1;2;TESTVV;Generalbloc;;;;pretest;Chronos;33;1;VV_290421/880.png;2;1;33;-20;blocVVstim;listVVTrial;;;;Chronos;0;;0;-1;484654;200;;0;0;1;1;Chronos;0;0;484854;300;1;1071;485925;1;1;Chronos;0;0;485154;0;1;771;485925;;;;;;;;;;;;;;;;;;;
EXP2.2_290421;1009;1;Chronos;<ChronosDeviceInfo><FriendlyName>MyChronos</FriendlyName><DeviceIndex>1</DeviceIndex><SerialNumber>CHR-04301-1186</SerialNumber><EBNVersion>3.0.3.80</EBNVersion><FirmwareVersion>1.33</FirmwareVersion><APIVersion>1.33</APIVersion><USBHostControllerVersion>2.0</USBHostControllerVersion><USBConnectionRoute>USB#ROOT_HUB20#4&9bd2e8a&0#{f18a0e88-c30c-11d0-8815-00a0c906bed8} + USB#VID_8087&PID_0024#5&3026c139&0&1#{f18a0e88-c30c-11d0-8815-00a0c906bed8}(1) + VID_2266&PID_0007(7)</USBConnectionRoute></ChronosDeviceInfo>;"<?xml version=""1.0""?>\n<Clock xmlns:dt=""urn:schemas-microsoft-com:datatypes""><Description dt:dt=""string"">E-Prime Primary Realtime Clock</Description><StartTime><Timestamp dt:dt=""int"">0</Timestamp><DateUtc dt:dt=""string"">2021-05-03T11:08:54Z</DateUtc></StartTime><FrequencyChanges><FrequencyChange><Frequency dt:dt=""r8"">2435566</Frequency><Timestamp dt:dt=""r8"">37953401795</Timestamp><Current dt:dt=""r8"">0</Current><DateUtc dt:dt=""string"">2021-05-03T11:08:54Z</DateUtc></FrequencyChange></FrequencyChanges></Clock>\n";EXP2.2_290421-1009-1;60.024;1.0.0.357;1;Chronos;-700867185;Full;3.0.3.80;3.0.3.80;05/03/2021;03/05/2021 11:08;13:08:54;3.0.3.82;2;Chronos;;2;1;2;TESTVV;Generalbloc;;;;pretest;Chronos;34;1;VV_290421/875.png;1;1;34;-25;blocVVstim;listVVTrial;;;;Chronos;0;;0;-1;487453;200;;0;0;0;1;Chronos;0;0;487653;300;5;760;488413;0;1;Chronos;0;0;487953;0;5;460;488413;;;;;;;;;;;;;;;;;;;
EXP2.2_290421;1009;1;Chronos;<ChronosDeviceInfo><FriendlyName>MyChronos</FriendlyName><DeviceIndex>1</DeviceIndex><SerialNumber>CHR-04301-1186</SerialNumber><EBNVersion>3.0.3.80</EBNVersion><FirmwareVersion>1.33</FirmwareVersion><APIVersion>1.33</APIVersion><USBHostControllerVersion>2.0</USBHostControllerVersion><USBConnectionRoute>USB#ROOT_HUB20#4&9bd2e8a&0#{f18a0e88-c30c-11d0-8815-00a0c906bed8} + USB#VID_8087&PID_0024#5&3026c139&0&1#{f18a0e88-c30c-11d0-8815-00a0c906bed8}(1) + VID_2266&PID_0007(7)</USBConnectionRoute></ChronosDeviceInfo>;"<?xml version=""1.0""?>\n<Clock xmlns:dt=""urn:schemas-microsoft-com:datatypes""><Description dt:dt=""string"">E-Prime Primary Realtime Clock</Description><StartTime><Timestamp dt:dt=""int"">0</Timestamp><DateUtc dt:dt=""string"">2021-05-03T11:08:54Z</DateUtc></StartTime><FrequencyChanges><FrequencyChange><Frequency dt:dt=""r8"">2435566</Frequency><Timestamp dt:dt=""r8"">37953401795</Timestamp><Current dt:dt=""r8"">0</Current><DateUtc dt:dt=""string"">2021-05-03T11:08:54Z</DateUtc></FrequencyChange></FrequencyChanges></Clock>\n";EXP2.2_290421-1009-1;60.024;1.0.0.357;1;Chronos;-700867185;Full;3.0.3.80;3.0.3.80;05/03/2021;03/05/2021 11:08;13:08:54;3.0.3.82;2;Chronos;;2;1;2;TESTVV;Generalbloc;;;;pretest;Chronos;35;5;VV_290421/915.png;9;1;35;15;blocVVstim;listVVTrial;;;;Chronos;0;;0;-1;489935;200;;0;0;1;5;Chronos;0;0;490135;300;5;1041;491176;1;5;Chronos;0;0;490435;0;5;741;491176;;;;;;;;;;;;;;;;;;;
EXP2.2_290421;1009;1;Chronos;<ChronosDeviceInfo><FriendlyName>MyChronos</FriendlyName><DeviceIndex>1</DeviceIndex><SerialNumber>CHR-04301-1186</SerialNumber><EBNVersion>3.0.3.80</EBNVersion><FirmwareVersion>1.33</FirmwareVersion><APIVersion>1.33</APIVersion><USBHostControllerVersion>2.0</USBHostControllerVersion><USBConnectionRoute>USB#ROOT_HUB20#4&9bd2e8a&0#{f18a0e88-c30c-11d0-8815-00a0c906bed8} + USB#VID_8087&PID_0024#5&3026c139&0&1#{f18a0e88-c30c-11d0-8815-00a0c906bed8}(1) + VID_2266&PID_0007(7)</USBConnectionRoute></ChronosDeviceInfo>;"<?xml version=""1.0""?>\n<Clock xmlns:dt=""urn:schemas-microsoft-com:datatypes""><Description dt:dt=""string"">E-Prime Primary Realtime Clock</Description><StartTime><Timestamp dt:dt=""int"">0</Timestamp><DateUtc dt:dt=""string"">2021-05-03T11:08:54Z</DateUtc></StartTime><FrequencyChanges><FrequencyChange><Frequency dt:dt=""r8"">2435566</Frequency><Timestamp dt:dt=""r8"">37953401795</Timestamp><Current dt:dt=""r8"">0</Current><DateUtc dt:dt=""string"">2021-05-03T11:08:54Z</DateUtc></FrequencyChange></FrequencyChanges></Clock>\n";EXP2.2_290421-1009-1;60.024;1.0.0.357;1;Chronos;-700867185;Full;3.0.3.80;3.0.3.80;05/03/2021;03/05/2021 11:08;13:08:54;3.0.3.82;2;Chronos;;2;1;2;TESTVV;Generalbloc;;;;pretest;Chronos;36;15;VV_290421/900.png;6;1;36;0;blocVVstim;listVVTrial;;;;Chronos;0;;0;0;492701;200;;0;0;0;15;Chronos;0;0;492901;300;5;597;493498;0;15;Chronos;0;0;493201;0;5;297;493498;;;;;;;;;;;;;;;;;;;
EXP2.2_290421;1009;1;Chronos;<ChronosDeviceInfo><FriendlyName>MyChronos</FriendlyName><DeviceIndex>1</DeviceIndex><SerialNumber>CHR-04301-1186</SerialNumber><EBNVersion>3.0.3.80</EBNVersion><FirmwareVersion>1.33</FirmwareVersion><APIVersion>1.33</APIVersion><USBHostControllerVersion>2.0</USBHostControllerVersion><USBConnectionRoute>USB#ROOT_HUB20#4&9bd2e8a&0#{f18a0e88-c30c-11d0-8815-00a0c906bed8} + USB#VID_8087&PID_0024#5&3026c139&0&1#{f18a0e88-c30c-11d0-8815-00a0c906bed8}(1) + VID_2266&PID_0007(7)</USBConnectionRoute></ChronosDeviceInfo>;"<?xml version=""1.0""?>\n<Clock xmlns:dt=""urn:schemas-microsoft-com:datatypes""><Description dt:dt=""string"">E-Prime Primary Realtime Clock</Description><StartTime><Timestamp dt:dt=""int"">0</Timestamp><DateUtc dt:dt=""string"">2021-05-03T11:08:54Z</DateUtc></StartTime><FrequencyChanges><FrequencyChange><Frequency dt:dt=""r8"">2435566</Frequency><Timestamp dt:dt=""r8"">37953401795</Timestamp><Current dt:dt=""r8"">0</Current><DateUtc dt:dt=""string"">2021-05-03T11:08:54Z</DateUtc></FrequencyChange></FrequencyChanges></Clock>\n";EXP2.2_290421-1009-1;60.024;1.0.0.357;1;Chronos;-700867185;Full;3.0.3.80;3.0.3.80;05/03/2021;03/05/2021 11:08;13:08:54;3.0.3.82;2;Chronos;;2;1;2;TESTVV;Generalbloc;;;;pretest;Chronos;37;5;VV_290421/910.png;8;1;37;10;blocVVstim;listVVTrial;;;;Chronos;0;;0;0;495017;200;;0;0;1;5;Chronos;0;0;495217;299;5;1133;496350;1;5;Chronos;1;-1;495516;0;5;834;496350;;;;;;;;;;;;;;;;;;;
EXP2.2_290421;1009;1;Chronos;<ChronosDeviceInfo><FriendlyName>MyChronos</FriendlyName><DeviceIndex>1</DeviceIndex><SerialNumber>CHR-04301-1186</SerialNumber><EBNVersion>3.0.3.80</EBNVersion><FirmwareVersion>1.33</FirmwareVersion><APIVersion>1.33</APIVersion><USBHostControllerVersion>2.0</USBHostControllerVersion><USBConnectionRoute>USB#ROOT_HUB20#4&9bd2e8a&0#{f18a0e88-c30c-11d0-8815-00a0c906bed8} + USB#VID_8087&PID_0024#5&3026c139&0&1#{f18a0e88-c30c-11d0-8815-00a0c906bed8}(1) + VID_2266&PID_0007(7)</USBConnectionRoute></ChronosDeviceInfo>;"<?xml version=""1.0""?>\n<Clock xmlns:dt=""urn:schemas-microsoft-com:datatypes""><Description dt:dt=""string"">E-Prime Primary Realtime Clock</Description><StartTime><Timestamp dt:dt=""int"">0</Timestamp><DateUtc dt:dt=""string"">2021-05-03T11:08:54Z</DateUtc></StartTime><FrequencyChanges><FrequencyChange><Frequency dt:dt=""r8"">2435566</Frequency><Timestamp dt:dt=""r8"">37953401795</Timestamp><Current dt:dt=""r8"">0</Current><DateUtc dt:dt=""string"">2021-05-03T11:08:54Z</DateUtc></FrequencyChange></FrequencyChanges></Clock>\n";EXP2.2_290421-1009-1;60.024;1.0.0.357;1;Chronos;-700867185;Full;3.0.3.80;3.0.3.80;05/03/2021;03/05/2021 11:08;13:08:54;3.0.3.82;2;Chronos;;2;1;2;TESTVV;Generalbloc;;;;pretest;Chronos;38;5;VV_290421/905.png;7;1;38;5;blocVVstim;listVVTrial;;;;Chronos;0;;0;0;497866;200;;0;0;0;5;Chronos;0;0;498066;299;1;986;499052;0;5;Chronos;1;-1;498365;0;1;687;499052;;;;;;;;;;;;;;;;;;;
EXP2.2_290421;1009;1;Chronos;<ChronosDeviceInfo><FriendlyName>MyChronos</FriendlyName><DeviceIndex>1</DeviceIndex><SerialNumber>CHR-04301-1186</SerialNumber><EBNVersion>3.0.3.80</EBNVersion><FirmwareVersion>1.33</FirmwareVersion><APIVersion>1.33</APIVersion><USBHostControllerVersion>2.0</USBHostControllerVersion><USBConnectionRoute>USB#ROOT_HUB20#4&9bd2e8a&0#{f18a0e88-c30c-11d0-8815-00a0c906bed8} + USB#VID_8087&PID_0024#5&3026c139&0&1#{f18a0e88-c30c-11d0-8815-00a0c906bed8}(1) + VID_2266&PID_0007(7)</USBConnectionRoute></ChronosDeviceInfo>;"<?xml version=""1.0""?>\n<Clock xmlns:dt=""urn:schemas-microsoft-com:datatypes""><Description dt:dt=""string"">E-Prime Primary Realtime Clock</Description><StartTime><Timestamp dt:dt=""int"">0</Timestamp><DateUtc dt:dt=""string"">2021-05-03T11:08:54Z</DateUtc></StartTime><FrequencyChanges><FrequencyChange><Frequency dt:dt=""r8"">2435566</Frequency><Timestamp dt:dt=""r8"">37953401795</Timestamp><Current dt:dt=""r8"">0</Current><DateUtc dt:dt=""string"">2021-05-03T11:08:54Z</DateUtc></FrequencyChange></FrequencyChanges></Clock>\n";EXP2.2_290421-1009-1;60.024;1.0.0.357;1;Chronos;-700867185;Full;3.0.3.80;3.0.3.80;05/03/2021;03/05/2021 11:08;13:08:54;3.0.3.82;2;Chronos;;2;1;2;TESTVV;Generalbloc;;;;pretest;Chronos;39;1;VV_290421/880.png;2;1;39;-20;blocVVstim;listVVTrial;;;;Chronos;0;;0;-1;500581;200;;0;0;0;1;Chronos;0;0;500781;300;5;1004;501785;0;1;Chronos;0;0;501081;0;5;704;501785;;;;;;;;;;;;;;;;;;;
EXP2.2_290421;1009;1;Chronos;<ChronosDeviceInfo><FriendlyName>MyChronos</FriendlyName><DeviceIndex>1</DeviceIndex><SerialNumber>CHR-04301-1186</SerialNumber><EBNVersion>3.0.3.80</EBNVersion><FirmwareVersion>1.33</FirmwareVersion><APIVersion>1.33</APIVersion><USBHostControllerVersion>2.0</USBHostControllerVersion><USBConnectionRoute>USB#ROOT_HUB20#4&9bd2e8a&0#{f18a0e88-c30c-11d0-8815-00a0c906bed8} + USB#VID_8087&PID_0024#5&3026c139&0&1#{f18a0e88-c30c-11d0-8815-00a0c906bed8}(1) + VID_2266&PID_0007(7)</USBConnectionRoute></ChronosDeviceInfo>;"<?xml version=""1.0""?>\n<Clock xmlns:dt=""urn:schemas-microsoft-com:datatypes""><Description dt:dt=""string"">E-Prime Primary Realtime Clock</Description><StartTime><Timestamp dt:dt=""int"">0</Timestamp><DateUtc dt:dt=""string"">2021-05-03T11:08:54Z</DateUtc></StartTime><FrequencyChanges><FrequencyChange><Frequency dt:dt=""r8"">2435566</Frequency><Timestamp dt:dt=""r8"">37953401795</Timestamp><Current dt:dt=""r8"">0</Current><DateUtc dt:dt=""string"">2021-05-03T11:08:54Z</DateUtc></FrequencyChange></FrequencyChanges></Clock>\n";EXP2.2_290421-1009-1;60.024;1.0.0.357;1;Chronos;-700867185;Full;3.0.3.80;3.0.3.80;05/03/2021;03/05/2021 11:08;13:08:54;3.0.3.82;2;Chronos;;2;1;2;TESTVV;Generalbloc;;;;pretest;Chronos;40;1;VV_290421/895.png;5;1;40;-5;blocVVstim;listVVTrial;;;;Chronos;0;;1;-1;503313;200;;0;0;1;1;Chronos;1;0;503513;300;1;1153;504666;1;1;Chronos;0;0;503813;0;1;853;504666;;;;;;;;;;;;;;;;;;;
EXP2.2_290421;1009;1;Chronos;<ChronosDeviceInfo><FriendlyName>MyChronos</FriendlyName><DeviceIndex>1</DeviceIndex><SerialNumber>CHR-04301-1186</SerialNumber><EBNVersion>3.0.3.80</EBNVersion><FirmwareVersion>1.33</FirmwareVersion><APIVersion>1.33</APIVersion><USBHostControllerVersion>2.0</USBHostControllerVersion><USBConnectionRoute>USB#ROOT_HUB20#4&9bd2e8a&0#{f18a0e88-c30c-11d0-8815-00a0c906bed8} + USB#VID_8087&PID_0024#5&3026c139&0&1#{f18a0e88-c30c-11d0-8815-00a0c906bed8}(1) + VID_2266&PID_0007(7)</USBConnectionRoute></ChronosDeviceInfo>;"<?xml version=""1.0""?>\n<Clock xmlns:dt=""urn:schemas-microsoft-com:datatypes""><Description dt:dt=""string"">E-Prime Primary Realtime Clock</Description><StartTime><Timestamp dt:dt=""int"">0</Timestamp><DateUtc dt:dt=""string"">2021-05-03T11:08:54Z</DateUtc></StartTime><FrequencyChanges><FrequencyChange><Frequency dt:dt=""r8"">2435566</Frequency><Timestamp dt:dt=""r8"">37953401795</Timestamp><Current dt:dt=""r8"">0</Current><DateUtc dt:dt=""string"">2021-05-03T11:08:54Z</DateUtc></FrequencyChange></FrequencyChanges></Clock>\n";EXP2.2_290421-1009-1;60.024;1.0.0.357;1;Chronos;-700867185;Full;3.0.3.80;3.0.3.80;05/03/2021;03/05/2021 11:08;13:08:54;3.0.3.82;2;Chronos;;2;1;2;TESTVV;Generalbloc;;;;pretest;Chronos;41;1;VV_290421/880.png;2;1;41;-20;blocVVstim;listVVTrial;;;;Chronos;0;;0;0;506196;200;;0;0;1;1;Chronos;0;0;506396;299;1;1020;507416;1;1;Chronos;1;-1;506695;0;1;721;507416;;;;;;;;;;;;;;;;;;;
EXP2.2_290421;1009;1;Chronos;<ChronosDeviceInfo><FriendlyName>MyChronos</FriendlyName><DeviceIndex>1</DeviceIndex><SerialNumber>CHR-04301-1186</SerialNumber><EBNVersion>3.0.3.80</EBNVersion><FirmwareVersion>1.33</FirmwareVersion><APIVersion>1.33</APIVersion><USBHostControllerVersion>2.0</USBHostControllerVersion><USBConnectionRoute>USB#ROOT_HUB20#4&9bd2e8a&0#{f18a0e88-c30c-11d0-8815-00a0c906bed8} + USB#VID_8087&PID_0024#5&3026c139&0&1#{f18a0e88-c30c-11d0-8815-00a0c906bed8}(1) + VID_2266&PID_0007(7)</USBConnectionRoute></ChronosDeviceInfo>;"<?xml version=""1.0""?>\n<Clock xmlns:dt=""urn:schemas-microsoft-com:datatypes""><Description dt:dt=""string"">E-Prime Primary Realtime Clock</Description><StartTime><Timestamp dt:dt=""int"">0</Timestamp><DateUtc dt:dt=""string"">2021-05-03T11:08:54Z</DateUtc></StartTime><FrequencyChanges><FrequencyChange><Frequency dt:dt=""r8"">2435566</Frequency><Timestamp dt:dt=""r8"">37953401795</Timestamp><Current dt:dt=""r8"">0</Current><DateUtc dt:dt=""string"">2021-05-03T11:08:54Z</DateUtc></FrequencyChange></FrequencyChanges></Clock>\n";EXP2.2_290421-1009-1;60.024;1.0.0.357;1;Chronos;-700867185;Full;3.0.3.80;3.0.3.80;05/03/2021;03/05/2021 11:08;13:08:54;3.0.3.82;2;Chronos;;2;1;2;TESTVV;Generalbloc;;;;pretest;Chronos;42;5;VV_290421/910.png;8;1;42;10;blocVVstim;listVVTrial;;;;Chronos;0;;0;-1;508928;200;;0;0;0;5;Chronos;0;0;509128;300;1;918;510046;0;5;Chronos;0;0;509428;0;1;618;510046;;;;;;;;;;;;;;;;;;;
EXP2.2_290421;1009;1;Chronos;<ChronosDeviceInfo><FriendlyName>MyChronos</FriendlyName><DeviceIndex>1</DeviceIndex><SerialNumber>CHR-04301-1186</SerialNumber><EBNVersion>3.0.3.80</EBNVersion><FirmwareVersion>1.33</FirmwareVersion><APIVersion>1.33</APIVersion><USBHostControllerVersion>2.0</USBHostControllerVersion><USBConnectionRoute>USB#ROOT_HUB20#4&9bd2e8a&0#{f18a0e88-c30c-11d0-8815-00a0c906bed8} + USB#VID_8087&PID_0024#5&3026c139&0&1#{f18a0e88-c30c-11d0-8815-00a0c906bed8}(1) + VID_2266&PID_0007(7)</USBConnectionRoute></ChronosDeviceInfo>;"<?xml version=""1.0""?>\n<Clock xmlns:dt=""urn:schemas-microsoft-com:datatypes""><Description dt:dt=""string"">E-Prime Primary Realtime Clock</Description><StartTime><Timestamp dt:dt=""int"">0</Timestamp><DateUtc dt:dt=""string"">2021-05-03T11:08:54Z</DateUtc></StartTime><FrequencyChanges><FrequencyChange><Frequency dt:dt=""r8"">2435566</Frequency><Timestamp dt:dt=""r8"">37953401795</Timestamp><Current dt:dt=""r8"">0</Current><DateUtc dt:dt=""string"">2021-05-03T11:08:54Z</DateUtc></FrequencyChange></FrequencyChanges></Clock>\n";EXP2.2_290421-1009-1;60.024;1.0.0.357;1;Chronos;-700867185;Full;3.0.3.80;3.0.3.80;05/03/2021;03/05/2021 11:08;13:08:54;3.0.3.82;2;Chronos;;2;1;2;TESTVV;Generalbloc;;;;pretest;Chronos;43;5;VV_290421/925.png;11;1;43;25;blocVVstim;listVVTrial;;;;Chronos;0;;0;-1;511560;200;;0;0;0;5;Chronos;0;0;511760;300;1;1021;512781;0;5;Chronos;0;0;512060;0;1;721;512781;;;;;;;;;;;;;;;;;;;
EXP2.2_290421;1009;1;Chronos;<ChronosDeviceInfo><FriendlyName>MyChronos</FriendlyName><DeviceIndex>1</DeviceIndex><SerialNumber>CHR-04301-1186</SerialNumber><EBNVersion>3.0.3.80</EBNVersion><FirmwareVersion>1.33</FirmwareVersion><APIVersion>1.33</APIVersion><USBHostControllerVersion>2.0</USBHostControllerVersion><USBConnectionRoute>USB#ROOT_HUB20#4&9bd2e8a&0#{f18a0e88-c30c-11d0-8815-00a0c906bed8} + USB#VID_8087&PID_0024#5&3026c139&0&1#{f18a0e88-c30c-11d0-8815-00a0c906bed8}(1) + VID_2266&PID_0007(7)</USBConnectionRoute></ChronosDeviceInfo>;"<?xml version=""1.0""?>\n<Clock xmlns:dt=""urn:schemas-microsoft-com:datatypes""><Description dt:dt=""string"">E-Prime Primary Realtime Clock</Description><StartTime><Timestamp dt:dt=""int"">0</Timestamp><DateUtc dt:dt=""string"">2021-05-03T11:08:54Z</DateUtc></StartTime><FrequencyChanges><FrequencyChange><Frequency dt:dt=""r8"">2435566</Frequency><Timestamp dt:dt=""r8"">37953401795</Timestamp><Current dt:dt=""r8"">0</Current><DateUtc dt:dt=""string"">2021-05-03T11:08:54Z</DateUtc></FrequencyChange></FrequencyChanges></Clock>\n";EXP2.2_290421-1009-1;60.024;1.0.0.357;1;Chronos;-700867185;Full;3.0.3.80;3.0.3.80;05/03/2021;03/05/2021 11:08;13:08:54;3.0.3.82;2;Chronos;;2;1;2;TESTVV;Generalbloc;;;;pretest;Chronos;44;1;VV_290421/890.png;4;1;44;-10;blocVVstim;listVVTrial;;;;Chronos;0;;0;0;514293;199;;0;0;1;1;Chronos;1;-1;514492;300;1;1648;516140;1;1;Chronos;1;0;514792;0;1;1348;516140;;;;;;;;;;;;;;;;;;;
EXP2.2_290421;1009;1;Chronos;<ChronosDeviceInfo><FriendlyName>MyChronos</FriendlyName><DeviceIndex>1</DeviceIndex><SerialNumber>CHR-04301-1186</SerialNumber><EBNVersion>3.0.3.80</EBNVersion><FirmwareVersion>1.33</FirmwareVersion><APIVersion>1.33</APIVersion><USBHostControllerVersion>2.0</USBHostControllerVersion><USBConnectionRoute>USB#ROOT_HUB20#4&9bd2e8a&0#{f18a0e88-c30c-11d0-8815-00a0c906bed8} + USB#VID_8087&PID_0024#5&3026c139&0&1#{f18a0e88-c30c-11d0-8815-00a0c906bed8}(1) + VID_2266&PID_0007(7)</USBConnectionRoute></ChronosDeviceInfo>;"<?xml version=""1.0""?>\n<Clock xmlns:dt=""urn:schemas-microsoft-com:datatypes""><Description dt:dt=""string"">E-Prime Primary Realtime Clock</Description><StartTime><Timestamp dt:dt=""int"">0</Timestamp><DateUtc dt:dt=""string"">2021-05-03T11:08:54Z</DateUtc></StartTime><FrequencyChanges><FrequencyChange><Frequency dt:dt=""r8"">2435566</Frequency><Timestamp dt:dt=""r8"">37953401795</Timestamp><Current dt:dt=""r8"">0</Current><DateUtc dt:dt=""string"">2021-05-03T11:08:54Z</DateUtc></FrequencyChange></FrequencyChanges></Clock>\n";EXP2.2_290421-1009-1;60.024;1.0.0.357;1;Chronos;-700867185;Full;3.0.3.80;3.0.3.80;05/03/2021;03/05/2021 11:08;13:08:54;3.0.3.82;2;Chronos;;2;1;2;TESTVV;Generalbloc;;;;pretest;Chronos;45;5;VV_290421/915.png;9;1;45;15;blocVVstim;listVVTrial;;;;Chronos;0;;0;-1;517658;200;;0;0;1;5;Chronos;0;0;517858;300;5;844;518702;1;5;Chronos;0;0;518158;0;5;544;518702;;;;;;;;;;;;;;;;;;;
EXP2.2_290421;1009;1;Chronos;<ChronosDeviceInfo><FriendlyName>MyChronos</FriendlyName><DeviceIndex>1</DeviceIndex><SerialNumber>CHR-04301-1186</SerialNumber><EBNVersion>3.0.3.80</EBNVersion><FirmwareVersion>1.33</FirmwareVersion><APIVersion>1.33</APIVersion><USBHostControllerVersion>2.0</USBHostControllerVersion><USBConnectionRoute>USB#ROOT_HUB20#4&9bd2e8a&0#{f18a0e88-c30c-11d0-8815-00a0c906bed8} + USB#VID_8087&PID_0024#5&3026c139&0&1#{f18a0e88-c30c-11d0-8815-00a0c906bed8}(1) + VID_2266&PID_0007(7)</USBConnectionRoute></ChronosDeviceInfo>;"<?xml version=""1.0""?>\n<Clock xmlns:dt=""urn:schemas-microsoft-com:datatypes""><Description dt:dt=""string"">E-Prime Primary Realtime Clock</Description><StartTime><Timestamp dt:dt=""int"">0</Timestamp><DateUtc dt:dt=""string"">2021-05-03T11:08:54Z</DateUtc></StartTime><FrequencyChanges><FrequencyChange><Frequency dt:dt=""r8"">2435566</Frequency><Timestamp dt:dt=""r8"">37953401795</Timestamp><Current dt:dt=""r8"">0</Current><DateUtc dt:dt=""string"">2021-05-03T11:08:54Z</DateUtc></FrequencyChange></FrequencyChanges></Clock>\n";EXP2.2_290421-1009-1;60.024;1.0.0.357;1;Chronos;-700867185;Full;3.0.3.80;3.0.3.80;05/03/2021;03/05/2021 11:08;13:08:54;3.0.3.82;2;Chronos;;2;1;2;TESTVV;Generalbloc;;;;pretest;Chronos;46;1;VV_290421/885.png;3;1;46;-15;blocVVstim;listVVTrial;;;;Chronos;0;;0;0;520224;200;;0;0;0;1;Chronos;0;0;520424;299;5;1091;521515;0;1;Chronos;1;-1;520723;0;5;792;521515;;;;;;;;;;;;;;;;;;;
EXP2.2_290421;1009;1;Chronos;<ChronosDeviceInfo><FriendlyName>MyChronos</FriendlyName><DeviceIndex>1</DeviceIndex><SerialNumber>CHR-04301-1186</SerialNumber><EBNVersion>3.0.3.80</EBNVersion><FirmwareVersion>1.33</FirmwareVersion><APIVersion>1.33</APIVersion><USBHostControllerVersion>2.0</USBHostControllerVersion><USBConnectionRoute>USB#ROOT_HUB20#4&9bd2e8a&0#{f18a0e88-c30c-11d0-8815-00a0c906bed8} + USB#VID_8087&PID_0024#5&3026c139&0&1#{f18a0e88-c30c-11d0-8815-00a0c906bed8}(1) + VID_2266&PID_0007(7)</USBConnectionRoute></ChronosDeviceInfo>;"<?xml version=""1.0""?>\n<Clock xmlns:dt=""urn:schemas-microsoft-com:datatypes""><Description dt:dt=""string"">E-Prime Primary Realtime Clock</Description><StartTime><Timestamp dt:dt=""int"">0</Timestamp><DateUtc dt:dt=""string"">2021-05-03T11:08:54Z</DateUtc></StartTime><FrequencyChanges><FrequencyChange><Frequency dt:dt=""r8"">2435566</Frequency><Timestamp dt:dt=""r8"">37953401795</Timestamp><Current dt:dt=""r8"">0</Current><DateUtc dt:dt=""string"">2021-05-03T11:08:54Z</DateUtc></FrequencyChange></FrequencyChanges></Clock>\n";EXP2.2_290421-1009-1;60.024;1.0.0.357;1;Chronos;-700867185;Full;3.0.3.80;3.0.3.80;05/03/2021;03/05/2021 11:08;13:08:54;3.0.3.82;2;Chronos;;2;1;2;TESTVV;Generalbloc;;;;pretest;Chronos;47;5;VV_290421/920.png;10;1;47;20;blocVVstim;listVVTrial;;;;Chronos;0;;0;-1;523039;200;;0;0;1;5;Chronos;0;0;523239;300;5;993;524232;1;5;Chronos;0;0;523539;0;5;693;524232;;;;;;;;;;;;;;;;;;;
EXP2.2_290421;1009;1;Chronos;<ChronosDeviceInfo><FriendlyName>MyChronos</FriendlyName><DeviceIndex>1</DeviceIndex><SerialNumber>CHR-04301-1186</SerialNumber><EBNVersion>3.0.3.80</EBNVersion><FirmwareVersion>1.33</FirmwareVersion><APIVersion>1.33</APIVersion><USBHostControllerVersion>2.0</USBHostControllerVersion><USBConnectionRoute>USB#ROOT_HUB20#4&9bd2e8a&0#{f18a0e88-c30c-11d0-8815-00a0c906bed8} + USB#VID_8087&PID_0024#5&3026c139&0&1#{f18a0e88-c30c-11d0-8815-00a0c906bed8}(1) + VID_2266&PID_0007(7)</USBConnectionRoute></ChronosDeviceInfo>;"<?xml version=""1.0""?>\n<Clock xmlns:dt=""urn:schemas-microsoft-com:datatypes""><Description dt:dt=""string"">E-Prime Primary Realtime Clock</Description><StartTime><Timestamp dt:dt=""int"">0</Timestamp><DateUtc dt:dt=""string"">2021-05-03T11:08:54Z</DateUtc></StartTime><FrequencyChanges><FrequencyChange><Frequency dt:dt=""r8"">2435566</Frequency><Timestamp dt:dt=""r8"">37953401795</Timestamp><Current dt:dt=""r8"">0</Current><DateUtc dt:dt=""string"">2021-05-03T11:08:54Z</DateUtc></FrequencyChange></FrequencyChanges></Clock>\n";EXP2.2_290421-1009-1;60.024;1.0.0.357;1;Chronos;-700867185;Full;3.0.3.80;3.0.3.80;05/03/2021;03/05/2021 11:08;13:08:54;3.0.3.82;2;Chronos;;2;1;2;TESTVV;Generalbloc;;;;pretest;Chronos;48;5;VV_290421/910.png;8;1;48;10;blocVVstim;listVVTrial;;;;Chronos;0;;0;0;525755;200;;0;0;1;5;Chronos;0;0;525955;300;5;857;526812;1;5;Chronos;0;0;526255;0;5;557;526812;;;;;;;;;;;;;;;;;;;
EXP2.2_290421;1009;1;Chronos;<ChronosDeviceInfo><FriendlyName>MyChronos</FriendlyName><DeviceIndex>1</DeviceIndex><SerialNumber>CHR-04301-1186</SerialNumber><EBNVersion>3.0.3.80</EBNVersion><FirmwareVersion>1.33</FirmwareVersion><APIVersion>1.33</APIVersion><USBHostControllerVersion>2.0</USBHostControllerVersion><USBConnectionRoute>USB#ROOT_HUB20#4&9bd2e8a&0#{f18a0e88-c30c-11d0-8815-00a0c906bed8} + USB#VID_8087&PID_0024#5&3026c139&0&1#{f18a0e88-c30c-11d0-8815-00a0c906bed8}(1) + VID_2266&PID_0007(7)</USBConnectionRoute></ChronosDeviceInfo>;"<?xml version=""1.0""?>\n<Clock xmlns:dt=""urn:schemas-microsoft-com:datatypes""><Description dt:dt=""string"">E-Prime Primary Realtime Clock</Description><StartTime><Timestamp dt:dt=""int"">0</Timestamp><DateUtc dt:dt=""string"">2021-05-03T11:08:54Z</DateUtc></StartTime><FrequencyChanges><FrequencyChange><Frequency dt:dt=""r8"">2435566</Frequency><Timestamp dt:dt=""r8"">37953401795</Timestamp><Current dt:dt=""r8"">0</Current><DateUtc dt:dt=""string"">2021-05-03T11:08:54Z</DateUtc></FrequencyChange></FrequencyChanges></Clock>\n";EXP2.2_290421-1009-1;60.024;1.0.0.357;1;Chronos;-700867185;Full;3.0.3.80;3.0.3.80;05/03/2021;03/05/2021 11:08;13:08:54;3.0.3.82;2;Chronos;;2;1;2;TESTVV;Generalbloc;;;;pretest;Chronos;49;1;VV_290421/875.png;1;1;49;-25;blocVVstim;listVVTrial;;;;Chronos;0;;0;-1;528337;200;;0;0;0;1;Chronos;0;0;528537;300;5;1030;529567;0;1;Chronos;0;0;528837;0;5;730;529567;;;;;;;;;;;;;;;;;;;
EXP2.2_290421;1009;1;Chronos;<ChronosDeviceInfo><FriendlyName>MyChronos</FriendlyName><DeviceIndex>1</DeviceIndex><SerialNumber>CHR-04301-1186</SerialNumber><EBNVersion>3.0.3.80</EBNVersion><FirmwareVersion>1.33</FirmwareVersion><APIVersion>1.33</APIVersion><USBHostControllerVersion>2.0</USBHostControllerVersion><USBConnectionRoute>USB#ROOT_HUB20#4&9bd2e8a&0#{f18a0e88-c30c-11d0-8815-00a0c906bed8} + USB#VID_8087&PID_0024#5&3026c139&0&1#{f18a0e88-c30c-11d0-8815-00a0c906bed8}(1) + VID_2266&PID_0007(7)</USBConnectionRoute></ChronosDeviceInfo>;"<?xml version=""1.0""?>\n<Clock xmlns:dt=""urn:schemas-microsoft-com:datatypes""><Description dt:dt=""string"">E-Prime Primary Realtime Clock</Description><StartTime><Timestamp dt:dt=""int"">0</Timestamp><DateUtc dt:dt=""string"">2021-05-03T11:08:54Z</DateUtc></StartTime><FrequencyChanges><FrequencyChange><Frequency dt:dt=""r8"">2435566</Frequency><Timestamp dt:dt=""r8"">37953401795</Timestamp><Current dt:dt=""r8"">0</Current><DateUtc dt:dt=""string"">2021-05-03T11:08:54Z</DateUtc></FrequencyChange></FrequencyChanges></Clock>\n";EXP2.2_290421-1009-1;60.024;1.0.0.357;1;Chronos;-700867185;Full;3.0.3.80;3.0.3.80;05/03/2021;03/05/2021 11:08;13:08:54;3.0.3.82;2;Chronos;;2;1;2;TESTVV;Generalbloc;;;;pretest;Chronos;50;5;VV_290421/920.png;10;1;50;20;blocVVstim;listVVTrial;;;;Chronos;0;;0;-1;531086;200;;0;0;1;5;Chronos;0;0;531286;300;5;1001;532287;1;5;Chronos;0;0;531586;0;5;701;532287;;;;;;;;;;;;;;;;;;;
EXP2.2_290421;1009;1;Chronos;<ChronosDeviceInfo><FriendlyName>MyChronos</FriendlyName><DeviceIndex>1</DeviceIndex><SerialNumber>CHR-04301-1186</SerialNumber><EBNVersion>3.0.3.80</EBNVersion><FirmwareVersion>1.33</FirmwareVersion><APIVersion>1.33</APIVersion><USBHostControllerVersion>2.0</USBHostControllerVersion><USBConnectionRoute>USB#ROOT_HUB20#4&9bd2e8a&0#{f18a0e88-c30c-11d0-8815-00a0c906bed8} + USB#VID_8087&PID_0024#5&3026c139&0&1#{f18a0e88-c30c-11d0-8815-00a0c906bed8}(1) + VID_2266&PID_0007(7)</USBConnectionRoute></ChronosDeviceInfo>;"<?xml version=""1.0""?>\n<Clock xmlns:dt=""urn:schemas-microsoft-com:datatypes""><Description dt:dt=""string"">E-Prime Primary Realtime Clock</Description><StartTime><Timestamp dt:dt=""int"">0</Timestamp><DateUtc dt:dt=""string"">2021-05-03T11:08:54Z</DateUtc></StartTime><FrequencyChanges><FrequencyChange><Frequency dt:dt=""r8"">2435566</Frequency><Timestamp dt:dt=""r8"">37953401795</Timestamp><Current dt:dt=""r8"">0</Current><DateUtc dt:dt=""string"">2021-05-03T11:08:54Z</DateUtc></FrequencyChange></FrequencyChanges></Clock>\n";EXP2.2_290421-1009-1;60.024;1.0.0.357;1;Chronos;-700867185;Full;3.0.3.80;3.0.3.80;05/03/2021;03/05/2021 11:08;13:08:54;3.0.3.82;2;Chronos;;2;1;2;TESTVV;Generalbloc;;;;pretest;Chronos;51;5;VV_290421/920.png;10;1;51;20;blocVVstim;listVVTrial;;;;Chronos;0;;0;0;533802;200;;0;0;1;5;Chronos;0;0;534002;299;5;1198;535200;1;5;Chronos;1;-1;534301;0;5;899;535200;;;;;;;;;;;;;;;;;;;
EXP2.2_290421;1009;1;Chronos;<ChronosDeviceInfo><FriendlyName>MyChronos</FriendlyName><DeviceIndex>1</DeviceIndex><SerialNumber>CHR-04301-1186</SerialNumber><EBNVersion>3.0.3.80</EBNVersion><FirmwareVersion>1.33</FirmwareVersion><APIVersion>1.33</APIVersion><USBHostControllerVersion>2.0</USBHostControllerVersion><USBConnectionRoute>USB#ROOT_HUB20#4&9bd2e8a&0#{f18a0e88-c30c-11d0-8815-00a0c906bed8} + USB#VID_8087&PID_0024#5&3026c139&0&1#{f18a0e88-c30c-11d0-8815-00a0c906bed8}(1) + VID_2266&PID_0007(7)</USBConnectionRoute></ChronosDeviceInfo>;"<?xml version=""1.0""?>\n<Clock xmlns:dt=""urn:schemas-microsoft-com:datatypes""><Description dt:dt=""string"">E-Prime Primary Realtime Clock</Description><StartTime><Timestamp dt:dt=""int"">0</Timestamp><DateUtc dt:dt=""string"">2021-05-03T11:08:54Z</DateUtc></StartTime><FrequencyChanges><FrequencyChange><Frequency dt:dt=""r8"">2435566</Frequency><Timestamp dt:dt=""r8"">37953401795</Timestamp><Current dt:dt=""r8"">0</Current><DateUtc dt:dt=""string"">2021-05-03T11:08:54Z</DateUtc></FrequencyChange></FrequencyChanges></Clock>\n";EXP2.2_290421-1009-1;60.024;1.0.0.357;1;Chronos;-700867185;Full;3.0.3.80;3.0.3.80;05/03/2021;03/05/2021 11:08;13:08:54;3.0.3.82;2;Chronos;;2;1;2;TESTVV;Generalbloc;;;;pretest;Chronos;52;5;VV_290421/915.png;9;1;52;15;blocVVstim;listVVTrial;;;;Chronos;0;;0;-1;536717;200;;0;0;0;5;Chronos;0;0;536917;300;1;779;537696;0;5;Chronos;0;0;537217;0;1;479;537696;;;;;;;;;;;;;;;;;;;
EXP2.2_290421;1009;1;Chronos;<ChronosDeviceInfo><FriendlyName>MyChronos</FriendlyName><DeviceIndex>1</DeviceIndex><SerialNumber>CHR-04301-1186</SerialNumber><EBNVersion>3.0.3.80</EBNVersion><FirmwareVersion>1.33</FirmwareVersion><APIVersion>1.33</APIVersion><USBHostControllerVersion>2.0</USBHostControllerVersion><USBConnectionRoute>USB#ROOT_HUB20#4&9bd2e8a&0#{f18a0e88-c30c-11d0-8815-00a0c906bed8} + USB#VID_8087&PID_0024#5&3026c139&0&1#{f18a0e88-c30c-11d0-8815-00a0c906bed8}(1) + VID_2266&PID_0007(7)</USBConnectionRoute></ChronosDeviceInfo>;"<?xml version=""1.0""?>\n<Clock xmlns:dt=""urn:schemas-microsoft-com:datatypes""><Description dt:dt=""string"">E-Prime Primary Realtime Clock</Description><StartTime><Timestamp dt:dt=""int"">0</Timestamp><DateUtc dt:dt=""string"">2021-05-03T11:08:54Z</DateUtc></StartTime><FrequencyChanges><FrequencyChange><Frequency dt:dt=""r8"">2435566</Frequency><Timestamp dt:dt=""r8"">37953401795</Timestamp><Current dt:dt=""r8"">0</Current><DateUtc dt:dt=""string"">2021-05-03T11:08:54Z</DateUtc></FrequencyChange></FrequencyChanges></Clock>\n";EXP2.2_290421-1009-1;60.024;1.0.0.357;1;Chronos;-700867185;Full;3.0.3.80;3.0.3.80;05/03/2021;03/05/2021 11:08;13:08:54;3.0.3.82;2;Chronos;;2;1;2;TESTVV;Generalbloc;;;;pretest;Chronos;53;5;VV_290421/905.png;7;1;53;5;blocVVstim;listVVTrial;;;;Chronos;0;;0;-1;539216;200;;0;0;1;5;Chronos;0;0;539416;300;5;895;540311;1;5;Chronos;0;0;539716;0;5;595;540311;;;;;;;;;;;;;;;;;;;
EXP2.2_290421;1009;1;Chronos;<ChronosDeviceInfo><FriendlyName>MyChronos</FriendlyName><DeviceIndex>1</DeviceIndex><SerialNumber>CHR-04301-1186</SerialNumber><EBNVersion>3.0.3.80</EBNVersion><FirmwareVersion>1.33</FirmwareVersion><APIVersion>1.33</APIVersion><USBHostControllerVersion>2.0</USBHostControllerVersion><USBConnectionRoute>USB#ROOT_HUB20#4&9bd2e8a&0#{f18a0e88-c30c-11d0-8815-00a0c906bed8} + USB#VID_8087&PID_0024#5&3026c139&0&1#{f18a0e88-c30c-11d0-8815-00a0c906bed8}(1) + VID_2266&PID_0007(7)</USBConnectionRoute></ChronosDeviceInfo>;"<?xml version=""1.0""?>\n<Clock xmlns:dt=""urn:schemas-microsoft-com:datatypes""><Description dt:dt=""string"">E-Prime Primary Realtime Clock</Description><StartTime><Timestamp dt:dt=""int"">0</Timestamp><DateUtc dt:dt=""string"">2021-05-03T11:08:54Z</DateUtc></StartTime><FrequencyChanges><FrequencyChange><Frequency dt:dt=""r8"">2435566</Frequency><Timestamp dt:dt=""r8"">37953401795</Timestamp><Current dt:dt=""r8"">0</Current><DateUtc dt:dt=""string"">2021-05-03T11:08:54Z</DateUtc></FrequencyChange></FrequencyChanges></Clock>\n";EXP2.2_290421-1009-1;60.024;1.0.0.357;1;Chronos;-700867185;Full;3.0.3.80;3.0.3.80;05/03/2021;03/05/2021 11:08;13:08:54;3.0.3.82;2;Chronos;;2;1;2;TESTVV;Generalbloc;;;;pretest;Chronos;54;5;VV_290421/925.png;11;1;54;25;blocVVstim;listVVTrial;;;;Chronos;0;;0;0;541832;200;;0;0;0;5;Chronos;0;0;542032;300;1;937;542969;0;5;Chronos;0;0;542332;0;1;637;542969;;;;;;;;;;;;;;;;;;;
EXP2.2_290421;1009;1;Chronos;<ChronosDeviceInfo><FriendlyName>MyChronos</FriendlyName><DeviceIndex>1</DeviceIndex><SerialNumber>CHR-04301-1186</SerialNumber><EBNVersion>3.0.3.80</EBNVersion><FirmwareVersion>1.33</FirmwareVersion><APIVersion>1.33</APIVersion><USBHostControllerVersion>2.0</USBHostControllerVersion><USBConnectionRoute>USB#ROOT_HUB20#4&9bd2e8a&0#{f18a0e88-c30c-11d0-8815-00a0c906bed8} + USB#VID_8087&PID_0024#5&3026c139&0&1#{f18a0e88-c30c-11d0-8815-00a0c906bed8}(1) + VID_2266&PID_0007(7)</USBConnectionRoute></ChronosDeviceInfo>;"<?xml version=""1.0""?>\n<Clock xmlns:dt=""urn:schemas-microsoft-com:datatypes""><Description dt:dt=""string"">E-Prime Primary Realtime Clock</Description><StartTime><Timestamp dt:dt=""int"">0</Timestamp><DateUtc dt:dt=""string"">2021-05-03T11:08:54Z</DateUtc></StartTime><FrequencyChanges><FrequencyChange><Frequency dt:dt=""r8"">2435566</Frequency><Timestamp dt:dt=""r8"">37953401795</Timestamp><Current dt:dt=""r8"">0</Current><DateUtc dt:dt=""string"">2021-05-03T11:08:54Z</DateUtc></FrequencyChange></FrequencyChanges></Clock>\n";EXP2.2_290421-1009-1;60.024;1.0.0.357;1;Chronos;-700867185;Full;3.0.3.80;3.0.3.80;05/03/2021;03/05/2021 11:08;13:08:54;3.0.3.82;2;Chronos;;2;1;2;TESTVV;Generalbloc;;;;pretest;Chronos;55;1;VV_290421/880.png;2;1;55;-20;blocVVstim;listVVTrial;;;;Chronos;0;;0;0;544481;200;;0;0;1;1;Chronos;0;0;544681;300;1;1107;545788;1;1;Chronos;0;0;544981;0;1;807;545788;;;;;;;;;;;;;;;;;;;
EXP2.2_290421;1009;1;Chronos;<ChronosDeviceInfo><FriendlyName>MyChronos</FriendlyName><DeviceIndex>1</DeviceIndex><SerialNumber>CHR-04301-1186</SerialNumber><EBNVersion>3.0.3.80</EBNVersion><FirmwareVersion>1.33</FirmwareVersion><APIVersion>1.33</APIVersion><USBHostControllerVersion>2.0</USBHostControllerVersion><USBConnectionRoute>USB#ROOT_HUB20#4&9bd2e8a&0#{f18a0e88-c30c-11d0-8815-00a0c906bed8} + USB#VID_8087&PID_0024#5&3026c139&0&1#{f18a0e88-c30c-11d0-8815-00a0c906bed8}(1) + VID_2266&PID_0007(7)</USBConnectionRoute></ChronosDeviceInfo>;"<?xml version=""1.0""?>\n<Clock xmlns:dt=""urn:schemas-microsoft-com:datatypes""><Description dt:dt=""string"">E-Prime Primary Realtime Clock</Description><StartTime><Timestamp dt:dt=""int"">0</Timestamp><DateUtc dt:dt=""string"">2021-05-03T11:08:54Z</DateUtc></StartTime><FrequencyChanges><FrequencyChange><Frequency dt:dt=""r8"">2435566</Frequency><Timestamp dt:dt=""r8"">37953401795</Timestamp><Current dt:dt=""r8"">0</Current><DateUtc dt:dt=""string"">2021-05-03T11:08:54Z</DateUtc></FrequencyChange></FrequencyChanges></Clock>\n";EXP2.2_290421-1009-1;60.024;1.0.0.357;1;Chronos;-700867185;Full;3.0.3.80;3.0.3.80;05/03/2021;03/05/2021 11:08;13:08:54;3.0.3.82;2;Chronos;;2;1;2;TESTVV;Generalbloc;;;;pretest;Chronos;56;1;VV_290421/895.png;5;1;56;-5;blocVVstim;listVVTrial;;;;Chronos;0;;0;-1;547313;200;;0;0;1;1;Chronos;0;0;547513;300;1;813;548326;1;1;Chronos;0;0;547813;0;1;513;548326;;;;;;;;;;;;;;;;;;;
EXP2.2_290421;1009;1;Chronos;<ChronosDeviceInfo><FriendlyName>MyChronos</FriendlyName><DeviceIndex>1</DeviceIndex><SerialNumber>CHR-04301-1186</SerialNumber><EBNVersion>3.0.3.80</EBNVersion><FirmwareVersion>1.33</FirmwareVersion><APIVersion>1.33</APIVersion><USBHostControllerVersion>2.0</USBHostControllerVersion><USBConnectionRoute>USB#ROOT_HUB20#4&9bd2e8a&0#{f18a0e88-c30c-11d0-8815-00a0c906bed8} + USB#VID_8087&PID_0024#5&3026c139&0&1#{f18a0e88-c30c-11d0-8815-00a0c906bed8}(1) + VID_2266&PID_0007(7)</USBConnectionRoute></ChronosDeviceInfo>;"<?xml version=""1.0""?>\n<Clock xmlns:dt=""urn:schemas-microsoft-com:datatypes""><Description dt:dt=""string"">E-Prime Primary Realtime Clock</Description><StartTime><Timestamp dt:dt=""int"">0</Timestamp><DateUtc dt:dt=""string"">2021-05-03T11:08:54Z</DateUtc></StartTime><FrequencyChanges><FrequencyChange><Frequency dt:dt=""r8"">2435566</Frequency><Timestamp dt:dt=""r8"">37953401795</Timestamp><Current dt:dt=""r8"">0</Current><DateUtc dt:dt=""string"">2021-05-03T11:08:54Z</DateUtc></FrequencyChange></FrequencyChanges></Clock>\n";EXP2.2_290421-1009-1;60.024;1.0.0.357;1;Chronos;-700867185;Full;3.0.3.80;3.0.3.80;05/03/2021;03/05/2021 11:08;13:08:54;3.0.3.82;2;Chronos;;2;1;2;TESTVV;Generalbloc;;;;pretest;Chronos;57;1;VV_290421/885.png;3;1;57;-15;blocVVstim;listVVTrial;;;;Chronos;0;;1;-1;549845;200;;0;0;0;1;Chronos;1;0;550045;300;5;922;550967;0;1;Chronos;0;0;550345;0;5;622;550967;;;;;;;;;;;;;;;;;;;
