word_stimuli,isi,countdown,trials.thisRepN,trials.thisTrialN,trials.thisN,trials.thisIndex,trial_loop.thisRepN,trial_loop.thisTrialN,trial_loop.thisN,trial_loop.thisIndex,trials_2.thisRepN,trials_2.thisTrialN,trials_2.thisN,trials_2.thisIndex,sound_exposure.started,sound_exposure.stopped,text.started,text.stopped,participant,session,date,expName,psychopyVersion,frameRate,
sounds/gauche.ogg,0.7,,0,0,0,0,0,0,0,15,,,,,103.85783757999889,None,,,,001,2021_May_04_1028,list_pa,2021.1.4,60.12726536947906,
sounds/gauche.ogg,0.7,,0,0,0,0,0,1,1,4,,,,,105.3594501799962,104.67394960000092,,,,001,2021_May_04_1028,list_pa,2021.1.4,60.12726536947906,
sounds/gauche.ogg,0.7,,0,0,0,0,0,2,2,24,,,,,106.8591459800009,106.17608779999864,,,,001,2021_May_04_1028,list_pa,2021.1.4,60.12726536947906,
sounds/droite.ogg,0.7,,0,0,0,0,0,3,3,46,,,,,108.35978497999895,107.67440519999946,,,,001,2021_May_04_1028,list_pa,2021.1.4,60.12726536947906,
sounds/droite.ogg,0.7,,0,0,0,0,0,4,4,49,,,,,109.86013228000229,109.17488359999697,,,,001,2021_May_04_1028,list_pa,2021.1.4,60.12726536947906,
sounds/gauche.ogg,0.7,,0,0,0,0,0,5,5,6,,,,,111.36099608000222,110.67549739999959,,,,001,2021_May_04_1028,list_pa,2021.1.4,60.12726536947906,
sounds/droite.ogg,0.7,,0,0,0,0,0,6,6,35,,,,,112.86030338000273,112.17559369999799,,,,001,2021_May_04_1028,list_pa,2021.1.4,60.12726536947906,
sounds/droite.ogg,0.7,,0,0,0,0,0,7,7,34,,,,,114.36107287999766,113.6764372999969,,,,001,2021_May_04_1028,list_pa,2021.1.4,60.12726536947906,
sounds/droite.ogg,0.7,,0,0,0,0,0,8,8,41,,,,,115.8614504799989,115.17615490000026,,,,001,2021_May_04_1028,list_pa,2021.1.4,60.12726536947906,
sounds/gauche.ogg,0.7,,0,0,0,0,0,9,9,19,,,,,117.36170267999842,116.67682559999957,,,,001,2021_May_04_1028,list_pa,2021.1.4,60.12726536947906,
sounds/gauche.ogg,0.7,,0,0,0,0,0,10,10,23,,,,,118.86304027999722,118.17669279999973,,,,001,2021_May_04_1028,list_pa,2021.1.4,60.12726536947906,
sounds/droite.ogg,0.7,,0,0,0,0,0,11,11,28,,,,,120.3789250799964,None,,,,001,2021_May_04_1028,list_pa,2021.1.4,60.12726536947906,
sounds/gauche.ogg,0.7,,0,0,0,0,0,12,12,17,,,,,121.8792380800005,121.1942601999981,,,,001,2021_May_04_1028,list_pa,2021.1.4,60.12726536947906,
sounds/droite.ogg,0.7,,0,0,0,0,0,13,13,29,,,,,123.37976917999913,122.69422130000021,,,,001,2021_May_04_1028,list_pa,2021.1.4,60.12726536947906,
sounds/droite.ogg,0.7,,0,0,0,0,0,14,14,43,,,,,124.87991707999754,124.19482050000079,,,,001,2021_May_04_1028,list_pa,2021.1.4,60.12726536947906,
sounds/gauche.ogg,0.7,,0,0,0,0,0,15,15,9,,,,,126.38015987999825,125.69412179999927,,,,001,2021_May_04_1028,list_pa,2021.1.4,60.12726536947906,
sounds/gauche.ogg,0.7,,0,0,0,0,0,16,16,8,,,,,127.88035567999759,127.19543859999976,,,,001,2021_May_04_1028,list_pa,2021.1.4,60.12726536947906,
sounds/droite.ogg,0.7,,0,0,0,0,0,17,17,48,,,,,129.38029418000224,128.69489520000207,,,,001,2021_May_04_1028,list_pa,2021.1.4,60.12726536947906,
sounds/gauche.ogg,0.7,,0,0,0,0,0,18,18,16,,,,,130.8807213800028,130.1945354999989,,,,001,2021_May_04_1028,list_pa,2021.1.4,60.12726536947906,
sounds/gauche.ogg,0.7,,0,0,0,0,0,19,19,12,,,,,132.37942527999985,131.69673560000228,,,,001,2021_May_04_1028,list_pa,2021.1.4,60.12726536947906,
sounds/gauche.ogg,0.7,,0,0,0,0,0,20,20,18,,,,,133.88200677999703,None,,,,001,2021_May_04_1028,list_pa,2021.1.4,60.12726536947906,
sounds/gauche.ogg,0.7,,0,0,0,0,0,21,21,2,,,,,135.38191447999998,134.6968543999974,,,,001,2021_May_04_1028,list_pa,2021.1.4,60.12726536947906,
sounds/gauche.ogg,0.7,,0,0,0,0,0,22,22,11,,,,,136.88343057999737,None,,,,001,2021_May_04_1028,list_pa,2021.1.4,60.12726536947906,
sounds/gauche.ogg,0.7,,0,0,0,0,0,23,23,14,,,,,138.38305617999868,137.69737929999974,,,,001,2021_May_04_1028,list_pa,2021.1.4,60.12726536947906,
sounds/droite.ogg,0.7,,0,0,0,0,0,24,24,32,,,,,139.88353877999907,139.19787579999684,,,,001,2021_May_04_1028,list_pa,2021.1.4,60.12726536947906,
sounds/droite.ogg,0.7,,0,0,0,0,0,25,25,25,,,,,141.38380627999868,140.69789160000073,,,,001,2021_May_04_1028,list_pa,2021.1.4,60.12726536947906,
sounds/gauche.ogg,0.7,,0,0,0,0,0,26,26,1,,,,,142.88318378000258,142.1973833000011,,,,001,2021_May_04_1028,list_pa,2021.1.4,60.12726536947906,
sounds/droite.ogg,0.7,,0,0,0,0,0,27,27,26,,,,,144.3841552800004,143.698504699998,,,,001,2021_May_04_1028,list_pa,2021.1.4,60.12726536947906,
sounds/droite.ogg,0.7,,0,0,0,0,0,28,28,47,,,,,145.88466717999836,145.19872529999702,,,,001,2021_May_04_1028,list_pa,2021.1.4,60.12726536947906,
sounds/gauche.ogg,0.7,,0,0,0,0,0,29,29,10,,,,,147.3842587800027,146.69960539999738,,,,001,2021_May_04_1028,list_pa,2021.1.4,60.12726536947906,
sounds/droite.ogg,0.7,,0,0,0,0,0,30,30,27,,,,,148.88446267999825,148.19963679999637,,,,001,2021_May_04_1028,list_pa,2021.1.4,60.12726536947906,
sounds/gauche.ogg,0.7,,0,0,0,0,0,31,31,7,,,,,150.38504957999976,149.6997846000013,,,,001,2021_May_04_1028,list_pa,2021.1.4,60.12726536947906,
sounds/droite.ogg,0.7,,0,0,0,0,0,32,32,31,,,,,151.88509817999875,151.20065330000216,,,,001,2021_May_04_1028,list_pa,2021.1.4,60.12726536947906,
sounds/gauche.ogg,0.7,,0,0,0,0,0,33,33,13,,,,,153.3855722799999,None,,,,001,2021_May_04_1028,list_pa,2021.1.4,60.12726536947906,
sounds/gauche.ogg,0.7,,0,0,0,0,0,34,34,21,,,,,154.88557017999847,154.20081799999753,,,,001,2021_May_04_1028,list_pa,2021.1.4,60.12726536947906,
sounds/droite.ogg,0.7,,0,0,0,0,0,35,35,33,,,,,156.3855556799972,155.70039070000348,,,,001,2021_May_04_1028,list_pa,2021.1.4,60.12726536947906,
sounds/gauche.ogg,0.7,,0,0,0,0,0,36,36,0,,,,,157.88617368000268,157.20121050000307,,,,001,2021_May_04_1028,list_pa,2021.1.4,60.12726536947906,
sounds/droite.ogg,0.7,,0,0,0,0,0,37,37,40,,,,,159.3860840799971,158.70138939999742,,,,001,2021_May_04_1028,list_pa,2021.1.4,60.12726536947906,
sounds/gauche.ogg,0.7,,0,0,0,0,0,38,38,20,,,,,160.88681558000098,160.2023973999967,,,,001,2021_May_04_1028,list_pa,2021.1.4,60.12726536947906,
sounds/droite.ogg,0.7,,0,0,0,0,0,39,39,39,,,,,162.38713037999696,161.70239240000228,,,,001,2021_May_04_1028,list_pa,2021.1.4,60.12726536947906,
sounds/gauche.ogg,0.7,,0,0,0,0,0,40,40,22,,,,,163.88772618000075,163.20303689999855,,,,001,2021_May_04_1028,list_pa,2021.1.4,60.12726536947906,
sounds/droite.ogg,0.7,,0,0,0,0,0,41,41,38,,,,,165.388401780001,164.70347290000063,,,,001,2021_May_04_1028,list_pa,2021.1.4,60.12726536947906,
sounds/droite.ogg,0.7,,0,0,0,0,0,42,42,37,,,,,166.8882438799992,166.20346309999877,,,,001,2021_May_04_1028,list_pa,2021.1.4,60.12726536947906,
sounds/droite.ogg,0.7,,0,0,0,0,0,43,43,36,,,,,168.38913407999644,167.7039294999995,,,,001,2021_May_04_1028,list_pa,2021.1.4,60.12726536947906,
sounds/droite.ogg,0.7,,0,0,0,0,0,44,44,44,,,,,169.88877818000037,169.2041928000035,,,,001,2021_May_04_1028,list_pa,2021.1.4,60.12726536947906,
sounds/gauche.ogg,0.7,,0,0,0,0,0,45,45,5,,,,,171.38926468000136,170.7046627000018,,,,001,2021_May_04_1028,list_pa,2021.1.4,60.12726536947906,
sounds/droite.ogg,0.7,,0,0,0,0,0,46,46,30,,,,,172.8895148800002,172.20469910000247,,,,001,2021_May_04_1028,list_pa,2021.1.4,60.12726536947906,
sounds/droite.ogg,0.7,,0,0,0,0,0,47,47,42,,,,,174.3896761799988,None,,,,001,2021_May_04_1028,list_pa,2021.1.4,60.12726536947906,
sounds/gauche.ogg,0.7,,0,0,0,0,0,48,48,3,,,,,175.89031237999734,175.2062702999974,,,,001,2021_May_04_1028,list_pa,2021.1.4,60.12726536947906,
sounds/droite.ogg,0.7,,0,0,0,0,0,49,49,45,,,,,177.39037588000065,176.70561520000047,,,,001,2021_May_04_1028,list_pa,2021.1.4,60.12726536947906,
,,30,0,0,0,0,,,,,0,0,0,0,,,178.2898023000016,None,,001,2021_May_04_1028,list_pa,2021.1.4,60.12726536947906,
,,29,0,0,0,0,,,,,0,1,1,1,,,179.22266769999987,None,,001,2021_May_04_1028,list_pa,2021.1.4,60.12726536947906,
,,28,0,0,0,0,,,,,0,2,2,2,,,180.223270100003,None,,001,2021_May_04_1028,list_pa,2021.1.4,60.12726536947906,
,,27,0,0,0,0,,,,,0,3,3,3,,,181.22354199999972,None,,001,2021_May_04_1028,list_pa,2021.1.4,60.12726536947906,
,,26,0,0,0,0,,,,,0,4,4,4,,,182.2235398999983,None,,001,2021_May_04_1028,list_pa,2021.1.4,60.12726536947906,
,,25,0,0,0,0,,,,,0,5,5,5,,,183.22403640000266,None,,001,2021_May_04_1028,list_pa,2021.1.4,60.12726536947906,
,,24,0,0,0,0,,,,,0,6,6,6,,,184.22288609999669,None,,001,2021_May_04_1028,list_pa,2021.1.4,60.12726536947906,
,,23,0,0,0,0,,,,,0,7,7,7,,,185.2240845999986,None,,001,2021_May_04_1028,list_pa,2021.1.4,60.12726536947906,
,,22,0,0,0,0,,,,,0,8,8,8,,,186.22433889999957,None,,001,2021_May_04_1028,list_pa,2021.1.4,60.12726536947906,
,,21,0,0,0,0,,,,,0,9,9,9,,,187.2243690000032,None,,001,2021_May_04_1028,list_pa,2021.1.4,60.12726536947906,
,,20,0,0,0,0,,,,,0,10,10,10,,,188.22458870000264,None,,001,2021_May_04_1028,list_pa,2021.1.4,60.12726536947906,
,,19,0,0,0,0,,,,,0,11,11,11,,,189.22529380000196,None,,001,2021_May_04_1028,list_pa,2021.1.4,60.12726536947906,
,,18,0,0,0,0,,,,,0,12,12,12,,,190.2249456999998,None,,001,2021_May_04_1028,list_pa,2021.1.4,60.12726536947906,
,,17,0,0,0,0,,,,,0,13,13,13,,,191.22532910000155,None,,001,2021_May_04_1028,list_pa,2021.1.4,60.12726536947906,
,,16,0,0,0,0,,,,,0,14,14,14,,,192.225282899999,None,,001,2021_May_04_1028,list_pa,2021.1.4,60.12726536947906,
,,15,0,0,0,0,,,,,0,15,15,15,,,193.22591690000263,None,,001,2021_May_04_1028,list_pa,2021.1.4,60.12726536947906,
,,14,0,0,0,0,,,,,0,16,16,16,,,194.22580390000076,None,,001,2021_May_04_1028,list_pa,2021.1.4,60.12726536947906,
,,13,0,0,0,0,,,,,0,17,17,17,,,195.2264692000026,None,,001,2021_May_04_1028,list_pa,2021.1.4,60.12726536947906,
,,12,0,0,0,0,,,,,0,18,18,18,,,196.2269196999987,None,,001,2021_May_04_1028,list_pa,2021.1.4,60.12726536947906,
,,11,0,0,0,0,,,,,0,19,19,19,,,197.2262841999982,None,,001,2021_May_04_1028,list_pa,2021.1.4,60.12726536947906,
,,10,0,0,0,0,,,,,0,20,20,20,,,198.22674640000332,None,,001,2021_May_04_1028,list_pa,2021.1.4,60.12726536947906,
,,9,0,0,0,0,,,,,0,21,21,21,,,199.2265800000023,None,,001,2021_May_04_1028,list_pa,2021.1.4,60.12726536947906,
,,8,0,0,0,0,,,,,0,22,22,22,,,200.2105150999996,None,,001,2021_May_04_1028,list_pa,2021.1.4,60.12726536947906,
,,7,0,0,0,0,,,,,0,23,23,23,,,201.21058790000097,None,,001,2021_May_04_1028,list_pa,2021.1.4,60.12726536947906,
,,6,0,0,0,0,,,,,0,24,24,24,,,202.21040840000205,None,,001,2021_May_04_1028,list_pa,2021.1.4,60.12726536947906,
,,5,0,0,0,0,,,,,0,25,25,25,,,203.21073169999727,None,,001,2021_May_04_1028,list_pa,2021.1.4,60.12726536947906,
,,4,0,0,0,0,,,,,0,26,26,26,,,204.2113709999976,None,,001,2021_May_04_1028,list_pa,2021.1.4,60.12726536947906,
,,3,0,0,0,0,,,,,0,27,27,27,,,205.2112941000014,None,,001,2021_May_04_1028,list_pa,2021.1.4,60.12726536947906,
,,2,0,0,0,0,,,,,0,28,28,28,,,206.2107868000021,None,,001,2021_May_04_1028,list_pa,2021.1.4,60.12726536947906,
,,1,0,0,0,0,,,,,0,29,29,29,,,207.19407130000036,None,,001,2021_May_04_1028,list_pa,2021.1.4,60.12726536947906,
,,0,0,0,0,0,,,,,0,30,30,30,,,208.2120145000008,None,,001,2021_May_04_1028,list_pa,2021.1.4,60.12726536947906,
,,,0,0,0,0,,,,,,,,,,,,,,001,2021_May_04_1028,list_pa,2021.1.4,60.12726536947906,
sounds/droite.ogg,0.7,,1,0,1,0,0,0,0,30,,,,,209.93012768000335,None,,,,001,2021_May_04_1028,list_pa,2021.1.4,60.12726536947906,
sounds/gauche.ogg,0.7,,1,0,1,0,0,1,1,22,,,,,211.43123637999815,210.74651979999908,,,,001,2021_May_04_1028,list_pa,2021.1.4,60.12726536947906,
sounds/gauche.ogg,0.7,,1,0,1,0,0,2,2,5,,,,,212.9303378800032,212.24658849999832,,,,001,2021_May_04_1028,list_pa,2021.1.4,60.12726536947906,
sounds/gauche.ogg,0.7,,1,0,1,0,0,3,3,1,,,,,214.43105577999813,None,,,,001,2021_May_04_1028,list_pa,2021.1.4,60.12726536947906,
sounds/gauche.ogg,0.7,,1,0,1,0,0,4,4,19,,,,,215.9315917799977,215.24694309999904,,,,001,2021_May_04_1028,list_pa,2021.1.4,60.12726536947906,
sounds/droite.ogg,0.7,,1,0,1,0,0,5,5,43,,,,,217.4329992799976,None,,,,001,2021_May_04_1028,list_pa,2021.1.4,60.12726536947906,
sounds/droite.ogg,0.7,,1,0,1,0,0,6,6,40,,,,,218.93240997999965,218.2470226000005,,,,001,2021_May_04_1028,list_pa,2021.1.4,60.12726536947906,
sounds/gauche.ogg,0.7,,1,0,1,0,0,7,7,15,,,,,220.43326058000093,219.747483799998,,,,001,2021_May_04_1028,list_pa,2021.1.4,60.12726536947906,
sounds/gauche.ogg,0.7,,1,0,1,0,0,8,8,11,,,,,221.93293468000047,221.24782850000338,,,,001,2021_May_04_1028,list_pa,2021.1.4,60.12726536947906,
sounds/gauche.ogg,0.7,,1,0,1,0,0,9,9,12,,,,,223.43351758000063,222.7477979000032,,,,001,2021_May_04_1028,list_pa,2021.1.4,60.12726536947906,
sounds/gauche.ogg,0.7,,1,0,1,0,0,10,10,4,,,,,224.93396717999713,224.24812350000138,,,,001,2021_May_04_1028,list_pa,2021.1.4,60.12726536947906,
sounds/gauche.ogg,0.7,,1,0,1,0,0,11,11,3,,,,,226.4347475800023,225.74867860000086,,,,001,2021_May_04_1028,list_pa,2021.1.4,60.12726536947906,
sounds/gauche.ogg,0.7,,1,0,1,0,0,12,12,0,,,,,227.95083737999812,None,,,,001,2021_May_04_1028,list_pa,2021.1.4,60.12726536947906,
sounds/droite.ogg,0.7,,1,0,1,0,0,13,13,36,,,,,229.4510036799984,None,,,,001,2021_May_04_1028,list_pa,2021.1.4,60.12726536947906,
sounds/gauche.ogg,0.7,,1,0,1,0,0,14,14,16,,,,,230.95092917999864,230.2668279999998,,,,001,2021_May_04_1028,list_pa,2021.1.4,60.12726536947906,
sounds/droite.ogg,0.7,,1,0,1,0,0,15,15,49,,,,,232.45219727999938,231.7673352999991,,,,001,2021_May_04_1028,list_pa,2021.1.4,60.12726536947906,
sounds/gauche.ogg,0.7,,1,0,1,0,0,16,16,13,,,,,233.95166608,233.2669670999967,,,,001,2021_May_04_1028,list_pa,2021.1.4,60.12726536947906,
sounds/droite.ogg,0.7,,1,0,1,0,0,17,17,48,,,,,235.45241107999755,None,,,,001,2021_May_04_1028,list_pa,2021.1.4,60.12726536947906,
sounds/gauche.ogg,0.7,,1,0,1,0,0,18,18,18,,,,,236.95273378000275,236.26765100000193,,,,001,2021_May_04_1028,list_pa,2021.1.4,60.12726536947906,
sounds/droite.ogg,0.7,,1,0,1,0,0,19,19,34,,,,,238.45354768000107,237.76783360000263,,,,001,2021_May_04_1028,list_pa,2021.1.4,60.12726536947906,
sounds/gauche.ogg,0.7,,1,0,1,0,0,20,20,24,,,,,239.95405277999816,239.2682264000032,,,,001,2021_May_04_1028,list_pa,2021.1.4,60.12726536947906,
sounds/droite.ogg,0.7,,1,0,1,0,0,21,21,37,,,,,241.45355918000132,240.76839699999982,,,,001,2021_May_04_1028,list_pa,2021.1.4,60.12726536947906,
sounds/gauche.ogg,0.7,,1,0,1,0,0,22,22,23,,,,,242.9535914799999,242.26846680000017,,,,001,2021_May_04_1028,list_pa,2021.1.4,60.12726536947906,
sounds/gauche.ogg,0.7,,1,0,1,0,0,23,23,2,,,,,244.45451958000194,243.76882260000275,,,,001,2021_May_04_1028,list_pa,2021.1.4,60.12726536947906,
sounds/droite.ogg,0.7,,1,0,1,0,0,24,24,27,,,,,245.95428897999955,245.26878099999885,,,,001,2021_May_04_1028,list_pa,2021.1.4,60.12726536947906,
sounds/gauche.ogg,0.7,,1,0,1,0,0,25,25,17,,,,,247.45444608000253,None,,,,001,2021_May_04_1028,list_pa,2021.1.4,60.12726536947906,
sounds/droite.ogg,0.7,,1,0,1,0,0,26,26,28,,,,,248.95512638000218,248.27004830000078,,,,001,2021_May_04_1028,list_pa,2021.1.4,60.12726536947906,
sounds/gauche.ogg,0.7,,1,0,1,0,0,27,27,20,,,,,250.45507398000336,249.77070110000204,,,,001,2021_May_04_1028,list_pa,2021.1.4,60.12726536947906,
sounds/gauche.ogg,0.7,,1,0,1,0,0,28,28,9,,,,,251.9558103800009,None,,,,001,2021_May_04_1028,list_pa,2021.1.4,60.12726536947906,
sounds/gauche.ogg,0.7,,1,0,1,0,0,29,29,21,,,,,253.45565958000225,252.7707070000033,,,,001,2021_May_04_1028,list_pa,2021.1.4,60.12726536947906,
sounds/droite.ogg,0.7,,1,0,1,0,0,30,30,42,,,,,254.9559746800005,254.27109200000268,,,,001,2021_May_04_1028,list_pa,2021.1.4,60.12726536947906,
sounds/droite.ogg,0.7,,1,0,1,0,0,31,31,31,,,,,256.4562077800001,255.77192430000287,,,,001,2021_May_04_1028,list_pa,2021.1.4,60.12726536947906,
sounds/droite.ogg,0.7,,1,0,1,0,0,32,32,39,,,,,257.9568022800013,257.27216529999714,,,,001,2021_May_04_1028,list_pa,2021.1.4,60.12726536947906,
sounds/gauche.ogg,0.7,,1,0,1,0,0,33,33,14,,,,,259.4563871799983,258.77227909999783,,,,001,2021_May_04_1028,list_pa,2021.1.4,60.12726536947906,
sounds/droite.ogg,0.7,,1,0,1,0,0,34,34,35,,,,,260.9577795799996,260.2722313999984,,,,001,2021_May_04_1028,list_pa,2021.1.4,60.12726536947906,
sounds/droite.ogg,0.7,,1,0,1,0,0,35,35,29,,,,,262.4574646800029,261.77284409999993,,,,001,2021_May_04_1028,list_pa,2021.1.4,60.12726536947906,
sounds/droite.ogg,0.7,,1,0,1,0,0,36,36,41,,,,,263.95827678000205,263.2745281000025,,,,001,2021_May_04_1028,list_pa,2021.1.4,60.12726536947906,
sounds/gauche.ogg,0.7,,1,0,1,0,0,37,37,8,,,,,265.45879437999974,264.7736913999979,,,,001,2021_May_04_1028,list_pa,2021.1.4,60.12726536947906,
sounds/droite.ogg,0.7,,1,0,1,0,0,38,38,26,,,,,266.9588666799973,266.2738223999986,,,,001,2021_May_04_1028,list_pa,2021.1.4,60.12726536947906,
sounds/droite.ogg,0.7,,1,0,1,0,0,39,39,47,,,,,268.4590336800029,None,,,,001,2021_May_04_1028,list_pa,2021.1.4,60.12726536947906,
sounds/droite.ogg,0.7,,1,0,1,0,0,40,40,44,,,,,269.95926558000065,269.27401180000015,,,,001,2021_May_04_1028,list_pa,2021.1.4,60.12726536947906,
sounds/droite.ogg,0.7,,1,0,1,0,0,41,41,25,,,,,271.4594027799976,270.77454379999836,,,,001,2021_May_04_1028,list_pa,2021.1.4,60.12726536947906,
sounds/gauche.ogg,0.7,,1,0,1,0,0,42,42,7,,,,,272.95996988000115,272.27458379999734,,,,001,2021_May_04_1028,list_pa,2021.1.4,60.12726536947906,
sounds/droite.ogg,0.7,,1,0,1,0,0,43,43,45,,,,,274.46075217999896,273.7752427000014,,,,001,2021_May_04_1028,list_pa,2021.1.4,60.12726536947906,
sounds/droite.ogg,0.7,,1,0,1,0,0,44,44,33,,,,,275.96055717999843,275.27599819999887,,,,001,2021_May_04_1028,list_pa,2021.1.4,60.12726536947906,
sounds/gauche.ogg,0.7,,1,0,1,0,0,45,45,6,,,,,277.46073387999786,276.7758832999971,,,,001,2021_May_04_1028,list_pa,2021.1.4,60.12726536947906,
sounds/gauche.ogg,0.7,,1,0,1,0,0,46,46,10,,,,,278.9611686799981,278.27659519999725,,,,001,2021_May_04_1028,list_pa,2021.1.4,60.12726536947906,
sounds/droite.ogg,0.7,,1,0,1,0,0,47,47,32,,,,,280.4620014800021,279.77698319999763,,,,001,2021_May_04_1028,list_pa,2021.1.4,60.12726536947906,
sounds/droite.ogg,0.7,,1,0,1,0,0,48,48,38,,,,,281.96150237999973,281.27691259999847,,,,001,2021_May_04_1028,list_pa,2021.1.4,60.12726536947906,
sounds/droite.ogg,0.7,,1,0,1,0,0,49,49,46,,,,,283.462309980001,None,,,,001,2021_May_04_1028,list_pa,2021.1.4,60.12726536947906,
,,30,1,0,1,0,,,,,0,0,0,0,,,284.29303999999684,None,,001,2021_May_04_1028,list_pa,2021.1.4,60.12726536947906,
,,29,1,0,1,0,,,,,0,1,1,1,,,285.2945667000022,None,,001,2021_May_04_1028,list_pa,2021.1.4,60.12726536947906,
,,28,1,0,1,0,,,,,0,2,2,2,,,286.29454819999955,None,,001,2021_May_04_1028,list_pa,2021.1.4,60.12726536947906,
,,27,1,0,1,0,,,,,0,3,3,3,,,287.29479600000195,None,,001,2021_May_04_1028,list_pa,2021.1.4,60.12726536947906,
,,26,1,0,1,0,,,,,0,4,4,4,,,288.2951677000019,None,,001,2021_May_04_1028,list_pa,2021.1.4,60.12726536947906,
,,25,1,0,1,0,,,,,0,5,5,5,,,289.2954019000026,None,,001,2021_May_04_1028,list_pa,2021.1.4,60.12726536947906,
,,24,1,0,1,0,,,,,0,6,6,6,,,290.29560689999926,None,,001,2021_May_04_1028,list_pa,2021.1.4,60.12726536947906,
,,23,1,0,1,0,,,,,0,7,7,7,,,291.2956345999992,None,,001,2021_May_04_1028,list_pa,2021.1.4,60.12726536947906,
,,22,1,0,1,0,,,,,0,8,8,8,,,292.2962327999994,None,,001,2021_May_04_1028,list_pa,2021.1.4,60.12726536947906,
,,21,1,0,1,0,,,,,0,9,9,9,,,293.29635229999985,None,,001,2021_May_04_1028,list_pa,2021.1.4,60.12726536947906,
,,20,1,0,1,0,,,,,0,10,10,10,,,294.2968888000032,None,,001,2021_May_04_1028,list_pa,2021.1.4,60.12726536947906,
,,19,1,0,1,0,,,,,0,11,11,11,,,295.2975571999996,None,,001,2021_May_04_1028,list_pa,2021.1.4,60.12726536947906,
,,18,1,0,1,0,,,,,0,12,12,12,,,296.2967053999964,None,,001,2021_May_04_1028,list_pa,2021.1.4,60.12726536947906,
,,17,1,0,1,0,,,,,0,13,13,13,,,297.2968419000026,None,,001,2021_May_04_1028,list_pa,2021.1.4,60.12726536947906,
,,16,1,0,1,0,,,,,0,14,14,14,,,298.29696369999874,None,,001,2021_May_04_1028,list_pa,2021.1.4,60.12726536947906,
,,15,1,0,1,0,,,,,0,15,15,15,,,299.27884300000005,None,,001,2021_May_04_1028,list_pa,2021.1.4,60.12726536947906,
,,14,1,0,1,0,,,,,0,16,16,16,,,300.27892959999735,None,,001,2021_May_04_1028,list_pa,2021.1.4,60.12726536947906,
,,13,1,0,1,0,,,,,0,17,17,17,,,301.2792228000035,None,,001,2021_May_04_1028,list_pa,2021.1.4,60.12726536947906,
,,12,1,0,1,0,,,,,0,18,18,18,,,302.2793229000017,None,,001,2021_May_04_1028,list_pa,2021.1.4,60.12726536947906,
,,11,1,0,1,0,,,,,0,19,19,19,,,303.2810432999977,None,,001,2021_May_04_1028,list_pa,2021.1.4,60.12726536947906,
,,10,1,0,1,0,,,,,0,20,20,20,,,304.29803040000115,None,,001,2021_May_04_1028,list_pa,2021.1.4,60.12726536947906,
,,9,1,0,1,0,,,,,0,21,21,21,,,305.2818737999987,None,,001,2021_May_04_1028,list_pa,2021.1.4,60.12726536947906,
,,8,1,0,1,0,,,,,0,22,22,22,,,306.2814728000012,None,,001,2021_May_04_1028,list_pa,2021.1.4,60.12726536947906,
,,7,1,0,1,0,,,,,0,23,23,23,,,307.2822613000026,None,,001,2021_May_04_1028,list_pa,2021.1.4,60.12726536947906,
,,6,1,0,1,0,,,,,0,24,24,24,,,308.2814309000023,None,,001,2021_May_04_1028,list_pa,2021.1.4,60.12726536947906,
,,5,1,0,1,0,,,,,0,25,25,25,,,309.2824166999999,None,,001,2021_May_04_1028,list_pa,2021.1.4,60.12726536947906,
,,4,1,0,1,0,,,,,0,26,26,26,,,310.28270480000356,None,,001,2021_May_04_1028,list_pa,2021.1.4,60.12726536947906,
,,3,1,0,1,0,,,,,0,27,27,27,,,311.28283940000256,None,,001,2021_May_04_1028,list_pa,2021.1.4,60.12726536947906,
,,2,1,0,1,0,,,,,0,28,28,28,,,312.2830688000031,None,,001,2021_May_04_1028,list_pa,2021.1.4,60.12726536947906,
,,1,1,0,1,0,,,,,0,29,29,29,,,313.2832106999995,None,,001,2021_May_04_1028,list_pa,2021.1.4,60.12726536947906,
,,0,1,0,1,0,,,,,0,30,30,30,,,314.28365830000257,None,,001,2021_May_04_1028,list_pa,2021.1.4,60.12726536947906,
,,,1,0,1,0,,,,,,,,,,,,,,001,2021_May_04_1028,list_pa,2021.1.4,60.12726536947906,
sounds/gauche.ogg,0.7,,2,0,2,0,0,0,0,10,,,,,316.0019738799965,None,,,,001,2021_May_04_1028,list_pa,2021.1.4,60.12726536947906,
sounds/gauche.ogg,0.7,,2,0,2,0,0,1,1,8,,,,,317.5011351799985,316.81707959999767,,,,001,2021_May_04_1028,list_pa,2021.1.4,60.12726536947906,
sounds/droite.ogg,0.7,,2,0,2,0,0,2,2,48,,,,,319.0024017800024,None,,,,001,2021_May_04_1028,list_pa,2021.1.4,60.12726536947906,
sounds/droite.ogg,0.7,,2,0,2,0,0,3,3,40,,,,,320.5026393799999,319.81754999999976,,,,001,2021_May_04_1028,list_pa,2021.1.4,60.12726536947906,
sounds/gauche.ogg,0.7,,2,0,2,0,0,4,4,7,,,,,322.00351147999754,None,,,,001,2021_May_04_1028,list_pa,2021.1.4,60.12726536947906,
sounds/gauche.ogg,0.7,,2,0,2,0,0,5,5,22,,,,,323.5035176800011,322.81772620000265,,,,001,2021_May_04_1028,list_pa,2021.1.4,60.12726536947906,
sounds/gauche.ogg,0.7,,2,0,2,0,0,6,6,4,,,,,325.0035712800018,324.31857180000225,,,,001,2021_May_04_1028,list_pa,2021.1.4,60.12726536947906,
sounds/droite.ogg,0.7,,2,0,2,0,0,7,7,38,,,,,326.50372177999816,None,,,,001,2021_May_04_1028,list_pa,2021.1.4,60.12726536947906,
sounds/gauche.ogg,0.7,,2,0,2,0,0,8,8,19,,,,,328.00425327999983,327.3194031000021,,,,001,2021_May_04_1028,list_pa,2021.1.4,60.12726536947906,
sounds/droite.ogg,0.7,,2,0,2,0,0,9,9,46,,,,,329.50497647999873,328.8194586000027,,,,001,2021_May_04_1028,list_pa,2021.1.4,60.12726536947906,
sounds/droite.ogg,0.7,,2,0,2,0,0,10,10,35,,,,,331.00507738000306,330.3200402000002,,,,001,2021_May_04_1028,list_pa,2021.1.4,60.12726536947906,
sounds/droite.ogg,0.7,,2,0,2,0,0,11,11,42,,,,,332.5050638800021,331.8201592999976,,,,001,2021_May_04_1028,list_pa,2021.1.4,60.12726536947906,
sounds/droite.ogg,0.7,,2,0,2,0,0,12,12,39,,,,,334.0060660800009,333.3203391999996,,,,001,2021_May_04_1028,list_pa,2021.1.4,60.12726536947906,
sounds/droite.ogg,0.7,,2,0,2,0,0,13,13,43,,,,,335.5057386799963,334.8206059000004,,,,001,2021_May_04_1028,list_pa,2021.1.4,60.12726536947906,
sounds/gauche.ogg,0.7,,2,0,2,0,0,14,14,14,,,,,337.00645718000305,336.3204005000007,,,,001,2021_May_04_1028,list_pa,2021.1.4,60.12726536947906,
sounds/gauche.ogg,0.7,,2,0,2,0,0,15,15,5,,,,,338.50615947999904,337.8213096000036,,,,001,2021_May_04_1028,list_pa,2021.1.4,60.12726536947906,
sounds/gauche.ogg,0.7,,2,0,2,0,0,16,16,2,,,,,340.0066322799976,339.32151200000226,,,,001,2021_May_04_1028,list_pa,2021.1.4,60.12726536947906,
sounds/droite.ogg,0.7,,2,0,2,0,0,17,17,33,,,,,341.50711607999983,340.8218202999997,,,,001,2021_May_04_1028,list_pa,2021.1.4,60.12726536947906,
sounds/droite.ogg,0.7,,2,0,2,0,0,18,18,47,,,,,343.00770688000193,None,,,,001,2021_May_04_1028,list_pa,2021.1.4,60.12726536947906,
sounds/gauche.ogg,0.7,,2,0,2,0,0,19,19,18,,,,,344.50743317999877,343.8227479999987,,,,001,2021_May_04_1028,list_pa,2021.1.4,60.12726536947906,
sounds/droite.ogg,0.7,,2,0,2,0,0,20,20,34,,,,,346.0081204800008,345.32288659999904,,,,001,2021_May_04_1028,list_pa,2021.1.4,60.12726536947906,
sounds/droite.ogg,0.7,,2,0,2,0,0,21,21,36,,,,,347.50837257999956,None,,,,001,2021_May_04_1028,list_pa,2021.1.4,60.12726536947906,
sounds/droite.ogg,0.7,,2,0,2,0,0,22,22,26,,,,,349.0091156799972,348.3237470000022,,,,001,2021_May_04_1028,list_pa,2021.1.4,60.12726536947906,
sounds/gauche.ogg,0.7,,2,0,2,0,0,23,23,17,,,,,350.50926567999704,349.8236853999988,,,,001,2021_May_04_1028,list_pa,2021.1.4,60.12726536947906,
sounds/gauche.ogg,0.7,,2,0,2,0,0,24,24,15,,,,,352.0093604799986,351.3233990000008,,,,001,2021_May_04_1028,list_pa,2021.1.4,60.12726536947906,
sounds/droite.ogg,0.7,,2,0,2,0,0,25,25,45,,,,,353.5095915799975,352.8246797999964,,,,001,2021_May_04_1028,list_pa,2021.1.4,60.12726536947906,
sounds/droite.ogg,0.7,,2,0,2,0,0,26,26,49,,,,,355.009659880001,354.32536670000263,,,,001,2021_May_04_1028,list_pa,2021.1.4,60.12726536947906,
sounds/droite.ogg,0.7,,2,0,2,0,0,27,27,28,,,,,356.5104660799989,355.82495370000106,,,,001,2021_May_04_1028,list_pa,2021.1.4,60.12726536947906,
sounds/droite.ogg,0.7,,2,0,2,0,0,28,28,44,,,,,358.01072037999984,357.32570549999946,,,,001,2021_May_04_1028,list_pa,2021.1.4,60.12726536947906,
sounds/gauche.ogg,0.7,,2,0,2,0,0,29,29,24,,,,,359.5109049800012,358.8259883999999,,,,001,2021_May_04_1028,list_pa,2021.1.4,60.12726536947906,
sounds/droite.ogg,0.7,,2,0,2,0,0,30,30,41,,,,,361.0109888799998,360.3261790000033,,,,001,2021_May_04_1028,list_pa,2021.1.4,60.12726536947906,
sounds/droite.ogg,0.7,,2,0,2,0,0,31,31,25,,,,,362.5118771799971,None,,,,001,2021_May_04_1028,list_pa,2021.1.4,60.12726536947906,
sounds/gauche.ogg,0.7,,2,0,2,0,0,32,32,12,,,,,364.0117925800005,363.32680589999654,,,,001,2021_May_04_1028,list_pa,2021.1.4,60.12726536947906,
sounds/droite.ogg,0.7,,2,0,2,0,0,33,33,37,,,,,365.5120432800031,None,,,,001,2021_May_04_1028,list_pa,2021.1.4,60.12726536947906,
sounds/gauche.ogg,0.7,,2,0,2,0,0,34,34,1,,,,,367.0124754799981,366.3271620000014,,,,001,2021_May_04_1028,list_pa,2021.1.4,60.12726536947906,
sounds/gauche.ogg,0.7,,2,0,2,0,0,35,35,9,,,,,368.51290267999866,367.8273740000004,,,,001,2021_May_04_1028,list_pa,2021.1.4,60.12726536947906,
sounds/gauche.ogg,0.7,,2,0,2,0,0,36,36,6,,,,,370.0131137799981,369.3278582999992,,,,001,2021_May_04_1028,list_pa,2021.1.4,60.12726536947906,
sounds/gauche.ogg,0.7,,2,0,2,0,0,37,37,20,,,,,371.5131650800031,370.82788040000014,,,,001,2021_May_04_1028,list_pa,2021.1.4,60.12726536947906,
sounds/gauche.ogg,0.7,,2,0,2,0,0,38,38,3,,,,,373.0135577800029,372.32754600000044,,,,001,2021_May_04_1028,list_pa,2021.1.4,60.12726536947906,
sounds/gauche.ogg,0.7,,2,0,2,0,0,39,39,11,,,,,374.5144294799975,373.8285257000025,,,,001,2021_May_04_1028,list_pa,2021.1.4,60.12726536947906,
sounds/gauche.ogg,0.7,,2,0,2,0,0,40,40,13,,,,,376.01425777999975,375.32893989999866,,,,001,2021_May_04_1028,list_pa,2021.1.4,60.12726536947906,
sounds/gauche.ogg,0.7,,2,0,2,0,0,41,41,0,,,,,377.51459518000047,376.82937810000294,,,,001,2021_May_04_1028,list_pa,2021.1.4,60.12726536947906,
sounds/droite.ogg,0.7,,2,0,2,0,0,42,42,31,,,,,379.0148232799984,378.3291964000018,,,,001,2021_May_04_1028,list_pa,2021.1.4,60.12726536947906,
sounds/gauche.ogg,0.7,,2,0,2,0,0,43,43,23,,,,,380.51495217999764,379.83020289999695,,,,001,2021_May_04_1028,list_pa,2021.1.4,60.12726536947906,
sounds/gauche.ogg,0.7,,2,0,2,0,0,44,44,16,,,,,382.0154520799988,None,,,,001,2021_May_04_1028,list_pa,2021.1.4,60.12726536947906,
sounds/gauche.ogg,0.7,,2,0,2,0,0,45,45,21,,,,,383.515425880003,382.83069319999777,,,,001,2021_May_04_1028,list_pa,2021.1.4,60.12726536947906,
sounds/droite.ogg,0.7,,2,0,2,0,0,46,46,30,,,,,385.01423947999865,384.33053059999656,,,,001,2021_May_04_1028,list_pa,2021.1.4,60.12726536947906,
sounds/droite.ogg,0.7,,2,0,2,0,0,47,47,32,,,,,386.51599608000106,None,,,,001,2021_May_04_1028,list_pa,2021.1.4,60.12726536947906,
sounds/droite.ogg,0.7,,2,0,2,0,0,48,48,27,,,,,388.0165626800008,387.3318761999981,,,,001,2021_May_04_1028,list_pa,2021.1.4,60.12726536947906,
sounds/droite.ogg,0.7,,2,0,2,0,0,49,49,29,,,,,389.5172472799968,388.8316565999994,,,,001,2021_May_04_1028,list_pa,2021.1.4,60.12726536947906,
,,30,2,0,2,0,,,,,0,0,0,0,,,390.36592940000264,None,,001,2021_May_04_1028,list_pa,2021.1.4,60.12726536947906,
,,29,2,0,2,0,,,,,0,1,1,1,,,391.34876030000305,None,,001,2021_May_04_1028,list_pa,2021.1.4,60.12726536947906,
,,28,2,0,2,0,,,,,0,2,2,2,,,392.3493234999987,None,,001,2021_May_04_1028,list_pa,2021.1.4,60.12726536947906,
,,27,2,0,2,0,,,,,0,3,3,3,,,393.3491903000031,None,,001,2021_May_04_1028,list_pa,2021.1.4,60.12726536947906,
,,26,2,0,2,0,,,,,0,4,4,4,,,394.3497733999975,None,,001,2021_May_04_1028,list_pa,2021.1.4,60.12726536947906,
,,25,2,0,2,0,,,,,0,5,5,5,,,395.3501860999968,None,,001,2021_May_04_1028,list_pa,2021.1.4,60.12726536947906,
,,24,2,0,2,0,,,,,0,6,6,6,,,396.3501552000016,None,,001,2021_May_04_1028,list_pa,2021.1.4,60.12726536947906,
,,23,2,0,2,0,,,,,0,7,7,7,,,397.3506189999971,None,,001,2021_May_04_1028,list_pa,2021.1.4,60.12726536947906,
,,22,2,0,2,0,,,,,0,8,8,8,,,398.3506673000011,None,,001,2021_May_04_1028,list_pa,2021.1.4,60.12726536947906,
,,21,2,0,2,0,,,,,0,9,9,9,,,399.3507376999987,None,,001,2021_May_04_1028,list_pa,2021.1.4,60.12726536947906,
,,20,2,0,2,0,,,,,0,10,10,10,,,400.33450849999645,None,,001,2021_May_04_1028,list_pa,2021.1.4,60.12726536947906,
,,19,2,0,2,0,,,,,0,11,11,11,,,401.35131640000327,None,,001,2021_May_04_1028,list_pa,2021.1.4,60.12726536947906,
,,18,2,0,2,0,,,,,0,12,12,12,,,402.3347469,None,,001,2021_May_04_1028,list_pa,2021.1.4,60.12726536947906,
,,17,2,0,2,0,,,,,0,13,13,13,,,403.33493889999954,None,,001,2021_May_04_1028,list_pa,2021.1.4,60.12726536947906,
,,16,2,0,2,0,,,,,0,14,14,14,,,404.3354420999967,None,,001,2021_May_04_1028,list_pa,2021.1.4,60.12726536947906,
,,15,2,0,2,0,,,,,0,15,15,15,,,405.33553360000224,None,,001,2021_May_04_1028,list_pa,2021.1.4,60.12726536947906,
,,14,2,0,2,0,,,,,0,16,16,16,,,406.3363829000009,None,,001,2021_May_04_1028,list_pa,2021.1.4,60.12726536947906,
,,13,2,0,2,0,,,,,0,17,17,17,,,407.3361661000017,None,,001,2021_May_04_1028,list_pa,2021.1.4,60.12726536947906,
,,12,2,0,2,0,,,,,0,18,18,18,,,408.3362915000034,None,,001,2021_May_04_1028,list_pa,2021.1.4,60.12726536947906,
,,11,2,0,2,0,,,,,0,19,19,19,,,409.3368960000007,None,,001,2021_May_04_1028,list_pa,2021.1.4,60.12726536947906,
,,10,2,0,2,0,,,,,0,20,20,20,,,410.3365514000034,None,,001,2021_May_04_1028,list_pa,2021.1.4,60.12726536947906,
,,9,2,0,2,0,,,,,0,21,21,21,,,411.3367118000024,None,,001,2021_May_04_1028,list_pa,2021.1.4,60.12726536947906,
,,8,2,0,2,0,,,,,0,22,22,22,,,412.3369900999969,None,,001,2021_May_04_1028,list_pa,2021.1.4,60.12726536947906,
,,7,2,0,2,0,,,,,0,23,23,23,,,413.3369545000023,None,,001,2021_May_04_1028,list_pa,2021.1.4,60.12726536947906,
,,6,2,0,2,0,,,,,0,24,24,24,,,414.33730159999686,None,,001,2021_May_04_1028,list_pa,2021.1.4,60.12726536947906,
,,5,2,0,2,0,,,,,0,25,25,25,,,415.3200614000016,None,,001,2021_May_04_1028,list_pa,2021.1.4,60.12726536947906,
,,4,2,0,2,0,,,,,0,26,26,26,,,416.3376027999984,None,,001,2021_May_04_1028,list_pa,2021.1.4,60.12726536947906,
,,3,2,0,2,0,,,,,0,27,27,27,,,417.33749530000205,None,,001,2021_May_04_1028,list_pa,2021.1.4,60.12726536947906,
,,2,2,0,2,0,,,,,0,28,28,28,,,418.33783160000166,None,,001,2021_May_04_1028,list_pa,2021.1.4,60.12726536947906,
,,1,2,0,2,0,,,,,0,29,29,29,,,419.33774260000064,None,,001,2021_May_04_1028,list_pa,2021.1.4,60.12726536947906,
,,0,2,0,2,0,,,,,0,30,30,30,,,420.3381570999991,None,,001,2021_May_04_1028,list_pa,2021.1.4,60.12726536947906,
,,,2,0,2,0,,,,,,,,,,,,,,001,2021_May_04_1028,list_pa,2021.1.4,60.12726536947906,
sounds/droite.ogg,0.7,,3,0,3,0,0,0,0,43,,,,,422.0566614799973,None,,,,001,2021_May_04_1028,list_pa,2021.1.4,60.12726536947906,
sounds/gauche.ogg,0.7,,3,0,3,0,0,1,1,7,,,,,423.55728287999955,422.872483799998,,,,001,2021_May_04_1028,list_pa,2021.1.4,60.12726536947906,
sounds/droite.ogg,0.7,,3,0,3,0,0,2,2,25,,,,,425.0571434800004,424.3729910999973,,,,001,2021_May_04_1028,list_pa,2021.1.4,60.12726536947906,
sounds/droite.ogg,0.7,,3,0,3,0,0,3,3,47,,,,,426.55750488000194,425.87306060000265,,,,001,2021_May_04_1028,list_pa,2021.1.4,60.12726536947906,
sounds/gauche.ogg,0.7,,3,0,3,0,0,4,4,24,,,,,428.05865657999675,427.3730463999964,,,,001,2021_May_04_1028,list_pa,2021.1.4,60.12726536947906,
sounds/droite.ogg,0.7,,3,0,3,0,0,5,5,27,,,,,429.5588812799979,428.8730205000029,,,,001,2021_May_04_1028,list_pa,2021.1.4,60.12726536947906,
sounds/droite.ogg,0.7,,3,0,3,0,0,6,6,36,,,,,431.058521879997,430.37385289999656,,,,001,2021_May_04_1028,list_pa,2021.1.4,60.12726536947906,
sounds/gauche.ogg,0.7,,3,0,3,0,0,7,7,14,,,,,432.5589835799983,431.8744153000007,,,,001,2021_May_04_1028,list_pa,2021.1.4,60.12726536947906,
sounds/droite.ogg,0.7,,3,0,3,0,0,8,8,49,,,,,434.0594053800014,433.37457449999783,,,,001,2021_May_04_1028,list_pa,2021.1.4,60.12726536947906,
sounds/droite.ogg,0.7,,3,0,3,0,0,9,9,38,,,,,435.5597073800018,434.8745904000025,,,,001,2021_May_04_1028,list_pa,2021.1.4,60.12726536947906,
sounds/droite.ogg,0.7,,3,0,3,0,0,10,10,40,,,,,437.06002497999725,436.3753708000004,,,,001,2021_May_04_1028,list_pa,2021.1.4,60.12726536947906,
sounds/droite.ogg,0.7,,3,0,3,0,0,11,11,37,,,,,438.560806579997,None,,,,001,2021_May_04_1028,list_pa,2021.1.4,60.12726536947906,
sounds/droite.ogg,0.7,,3,0,3,0,0,12,12,44,,,,,440.06076087999827,439.37568869999814,,,,001,2021_May_04_1028,list_pa,2021.1.4,60.12726536947906,
sounds/gauche.ogg,0.7,,3,0,3,0,0,13,13,5,,,,,441.5607521799975,440.8763159000009,,,,001,2021_May_04_1028,list_pa,2021.1.4,60.12726536947906,
sounds/droite.ogg,0.7,,3,0,3,0,0,14,14,33,,,,,443.0612588799995,None,,,,001,2021_May_04_1028,list_pa,2021.1.4,60.12726536947906,
sounds/gauche.ogg,0.7,,3,0,3,0,0,15,15,4,,,,,444.56147718000284,443.8767031000025,,,,001,2021_May_04_1028,list_pa,2021.1.4,60.12726536947906,
sounds/gauche.ogg,0.7,,3,0,3,0,0,16,16,13,,,,,446.0617087799983,None,,,,001,2021_May_04_1028,list_pa,2021.1.4,60.12726536947906,
sounds/gauche.ogg,0.7,,3,0,3,0,0,17,17,17,,,,,447.5621378799988,446.87692000000243,,,,001,2021_May_04_1028,list_pa,2021.1.4,60.12726536947906,
sounds/gauche.ogg,0.7,,3,0,3,0,0,18,18,23,,,,,449.06286168000224,448.37680420000106,,,,001,2021_May_04_1028,list_pa,2021.1.4,60.12726536947906,
sounds/gauche.ogg,0.7,,3,0,3,0,0,19,19,16,,,,,450.56295348000276,449.8768598000024,,,,001,2021_May_04_1028,list_pa,2021.1.4,60.12726536947906,
sounds/droite.ogg,0.7,,3,0,3,0,0,20,20,42,,,,,452.0634539800012,451.3777829000028,,,,001,2021_May_04_1028,list_pa,2021.1.4,60.12726536947906,
sounds/droite.ogg,0.7,,3,0,3,0,0,21,21,26,,,,,453.56417797999893,452.87797590000264,,,,001,2021_May_04_1028,list_pa,2021.1.4,60.12726536947906,
sounds/droite.ogg,0.7,,3,0,3,0,0,22,22,32,,,,,455.06372007999744,454.3787213999967,,,,001,2021_May_04_1028,list_pa,2021.1.4,60.12726536947906,
sounds/gauche.ogg,0.7,,3,0,3,0,0,23,23,15,,,,,456.56444157999795,None,,,,001,2021_May_04_1028,list_pa,2021.1.4,60.12726536947906,
sounds/gauche.ogg,0.7,,3,0,3,0,0,24,24,19,,,,,458.0647400800008,457.3791538000005,,,,001,2021_May_04_1028,list_pa,2021.1.4,60.12726536947906,
sounds/droite.ogg,0.7,,3,0,3,0,0,25,25,46,,,,,459.5644155799964,458.8795403999975,,,,001,2021_May_04_1028,list_pa,2021.1.4,60.12726536947906,
sounds/gauche.ogg,0.7,,3,0,3,0,0,26,26,0,,,,,461.06470237999747,None,,,,001,2021_May_04_1028,list_pa,2021.1.4,60.12726536947906,
sounds/gauche.ogg,0.7,,3,0,3,0,0,27,27,1,,,,,462.56493277999834,461.88024369999766,,,,001,2021_May_04_1028,list_pa,2021.1.4,60.12726536947906,
sounds/droite.ogg,0.7,,3,0,3,0,0,28,28,30,,,,,464.06485588000214,463.3802474999975,,,,001,2021_May_04_1028,list_pa,2021.1.4,60.12726536947906,
sounds/gauche.ogg,0.7,,3,0,3,0,0,29,29,9,,,,,465.56518248000066,464.88092419999884,,,,001,2021_May_04_1028,list_pa,2021.1.4,60.12726536947906,
sounds/gauche.ogg,0.7,,3,0,3,0,0,30,30,18,,,,,467.06629698000324,466.38118029999896,,,,001,2021_May_04_1028,list_pa,2021.1.4,60.12726536947906,
sounds/gauche.ogg,0.7,,3,0,3,0,0,31,31,11,,,,,468.5657034800024,467.881318300002,,,,001,2021_May_04_1028,list_pa,2021.1.4,60.12726536947906,
sounds/gauche.ogg,0.7,,3,0,3,0,0,32,32,8,,,,,470.06683787999646,469.38174230000004,,,,001,2021_May_04_1028,list_pa,2021.1.4,60.12726536947906,
sounds/droite.ogg,0.7,,3,0,3,0,0,33,33,35,,,,,471.56667138000194,470.88196489999973,,,,001,2021_May_04_1028,list_pa,2021.1.4,60.12726536947906,
sounds/droite.ogg,0.7,,3,0,3,0,0,34,34,34,,,,,473.0669294800027,None,,,,001,2021_May_04_1028,list_pa,2021.1.4,60.12726536947906,
sounds/droite.ogg,0.7,,3,0,3,0,0,35,35,48,,,,,474.5676421800017,473.88262869999744,,,,001,2021_May_04_1028,list_pa,2021.1.4,60.12726536947906,
sounds/gauche.ogg,0.7,,3,0,3,0,0,36,36,6,,,,,476.06789328000013,475.3825687999997,,,,001,2021_May_04_1028,list_pa,2021.1.4,60.12726536947906,
sounds/gauche.ogg,0.7,,3,0,3,0,0,37,37,12,,,,,477.56811138000194,None,,,,001,2021_May_04_1028,list_pa,2021.1.4,60.12726536947906,
sounds/droite.ogg,0.7,,3,0,3,0,0,38,38,41,,,,,479.0688562799987,478.38329220000014,,,,001,2021_May_04_1028,list_pa,2021.1.4,60.12726536947906,
sounds/gauche.ogg,0.7,,3,0,3,0,0,39,39,2,,,,,480.569117179999,479.8841755999965,,,,001,2021_May_04_1028,list_pa,2021.1.4,60.12726536947906,
sounds/droite.ogg,0.7,,3,0,3,0,0,40,40,39,,,,,482.0691177799963,None,,,,001,2021_May_04_1028,list_pa,2021.1.4,60.12726536947906,
sounds/gauche.ogg,0.7,,3,0,3,0,0,41,41,3,,,,,483.56947067999863,482.88437529999646,,,,001,2021_May_04_1028,list_pa,2021.1.4,60.12726536947906,
sounds/gauche.ogg,0.7,,3,0,3,0,0,42,42,10,,,,,485.0696843800033,484.3847824999975,,,,001,2021_May_04_1028,list_pa,2021.1.4,60.12726536947906,
sounds/droite.ogg,0.7,,3,0,3,0,0,43,43,45,,,,,486.5700812799987,485.8848147000026,,,,001,2021_May_04_1028,list_pa,2021.1.4,60.12726536947906,
sounds/gauche.ogg,0.7,,3,0,3,0,0,44,44,20,,,,,488.0704836799996,487.38552060000075,,,,001,2021_May_04_1028,list_pa,2021.1.4,60.12726536947906,
sounds/droite.ogg,0.7,,3,0,3,0,0,45,45,29,,,,,489.57077158000175,488.8860895999969,,,,001,2021_May_04_1028,list_pa,2021.1.4,60.12726536947906,
sounds/droite.ogg,0.7,,3,0,3,0,0,46,46,28,,,,,491.0712912800009,490.3863584999999,,,,001,2021_May_04_1028,list_pa,2021.1.4,60.12726536947906,
sounds/droite.ogg,0.7,,3,0,3,0,0,47,47,31,,,,,492.5718425800005,491.88680990000285,,,,001,2021_May_04_1028,list_pa,2021.1.4,60.12726536947906,
sounds/gauche.ogg,0.7,,3,0,3,0,0,48,48,22,,,,,494.0859051799998,None,,,,001,2021_May_04_1028,list_pa,2021.1.4,60.12726536947906,
sounds/gauche.ogg,0.7,,3,0,3,0,0,49,49,21,,,,,495.5885102800021,494.8859023999976,,,,001,2021_May_04_1028,list_pa,2021.1.4,60.12726536947906,
,,30,3,0,3,0,,,,,0,0,0,0,,,496.4194493000032,None,,001,2021_May_04_1028,list_pa,2021.1.4,60.12726536947906,
,,29,3,0,3,0,,,,,0,1,1,1,,,497.4205617999978,None,,001,2021_May_04_1028,list_pa,2021.1.4,60.12726536947906,
,,28,3,0,3,0,,,,,0,2,2,2,,,498.420987700003,None,,001,2021_May_04_1028,list_pa,2021.1.4,60.12726536947906,
,,27,3,0,3,0,,,,,0,3,3,3,,,499.4214374000003,None,,001,2021_May_04_1028,list_pa,2021.1.4,60.12726536947906,
,,26,3,0,3,0,,,,,0,4,4,4,,,500.42122609999933,None,,001,2021_May_04_1028,list_pa,2021.1.4,60.12726536947906,
,,25,3,0,3,0,,,,,0,5,5,5,,,501.42150769999716,None,,001,2021_May_04_1028,list_pa,2021.1.4,60.12726536947906,
,,24,3,0,3,0,,,,,0,6,6,6,,,502.42190429999755,None,,001,2021_May_04_1028,list_pa,2021.1.4,60.12726536947906,
,,23,3,0,3,0,,,,,0,7,7,7,,,503.4221456000014,None,,001,2021_May_04_1028,list_pa,2021.1.4,60.12726536947906,
,,22,3,0,3,0,,,,,0,8,8,8,,,504.42240820000006,None,,001,2021_May_04_1028,list_pa,2021.1.4,60.12726536947906,
,,21,3,0,3,0,,,,,0,9,9,9,,,505.4215781000021,None,,001,2021_May_04_1028,list_pa,2021.1.4,60.12726536947906,
,,20,3,0,3,0,,,,,0,10,10,10,,,506.422221599998,None,,001,2021_May_04_1028,list_pa,2021.1.4,60.12726536947906,
,,19,3,0,3,0,,,,,0,11,11,11,,,507.42244260000007,None,,001,2021_May_04_1028,list_pa,2021.1.4,60.12726536947906,
,,18,3,0,3,0,,,,,0,12,12,12,,,508.42270109999663,None,,001,2021_May_04_1028,list_pa,2021.1.4,60.12726536947906,
,,17,3,0,3,0,,,,,0,13,13,13,,,509.42339860000357,None,,001,2021_May_04_1028,list_pa,2021.1.4,60.12726536947906,
,,16,3,0,3,0,,,,,0,14,14,14,,,510.4069013999979,None,,001,2021_May_04_1028,list_pa,2021.1.4,60.12726536947906,
,,15,3,0,3,0,,,,,0,15,15,15,,,511.4240357000017,None,,001,2021_May_04_1028,list_pa,2021.1.4,60.12726536947906,
,,14,3,0,3,0,,,,,0,16,16,16,,,512.4069530999986,None,,001,2021_May_04_1028,list_pa,2021.1.4,60.12726536947906,
,,13,3,0,3,0,,,,,0,17,17,17,,,513.4071929999991,None,,001,2021_May_04_1028,list_pa,2021.1.4,60.12726536947906,
,,12,3,0,3,0,,,,,0,18,18,18,,,514.4075706000003,None,,001,2021_May_04_1028,list_pa,2021.1.4,60.12726536947906,
,,11,3,0,3,0,,,,,0,19,19,19,,,515.4072633000033,None,,001,2021_May_04_1028,list_pa,2021.1.4,60.12726536947906,
,,10,3,0,3,0,,,,,0,20,20,20,,,516.4076854000014,None,,001,2021_May_04_1028,list_pa,2021.1.4,60.12726536947906,
,,9,3,0,3,0,,,,,0,21,21,21,,,517.4080699999977,None,,001,2021_May_04_1028,list_pa,2021.1.4,60.12726536947906,
,,8,3,0,3,0,,,,,0,22,22,22,,,518.4083543000015,None,,001,2021_May_04_1028,list_pa,2021.1.4,60.12726536947906,
,,7,3,0,3,0,,,,,0,23,23,23,,,519.4081670000014,None,,001,2021_May_04_1028,list_pa,2021.1.4,60.12726536947906,
,,6,3,0,3,0,,,,,0,24,24,24,,,520.4081905999992,None,,001,2021_May_04_1028,list_pa,2021.1.4,60.12726536947906,
,,5,3,0,3,0,,,,,0,25,25,25,,,521.4086525000021,None,,001,2021_May_04_1028,list_pa,2021.1.4,60.12726536947906,
,,4,3,0,3,0,,,,,0,26,26,26,,,522.4087838999985,None,,001,2021_May_04_1028,list_pa,2021.1.4,60.12726536947906,
,,3,3,0,3,0,,,,,0,27,27,27,,,523.4088783999978,None,,001,2021_May_04_1028,list_pa,2021.1.4,60.12726536947906,
,,2,3,0,3,0,,,,,0,28,28,28,,,524.4091694000017,None,,001,2021_May_04_1028,list_pa,2021.1.4,60.12726536947906,
,,1,3,0,3,0,,,,,0,29,29,29,,,525.4098664999983,None,,001,2021_May_04_1028,list_pa,2021.1.4,60.12726536947906,
,,0,3,0,3,0,,,,,0,30,30,30,,,526.4101553,None,,001,2021_May_04_1028,list_pa,2021.1.4,60.12726536947906,
,,,3,0,3,0,,,,,,,,,,,,,,001,2021_May_04_1028,list_pa,2021.1.4,60.12726536947906,
sounds/droite.ogg,0.7,,4,0,4,0,0,0,0,34,,,,,528.1282702800017,None,,,,001,2021_May_04_1028,list_pa,2021.1.4,60.12726536947906,
sounds/gauche.ogg,0.7,,4,0,4,0,0,1,1,18,,,,,529.6287777800026,528.9438965000008,,,,001,2021_May_04_1028,list_pa,2021.1.4,60.12726536947906,
sounds/gauche.ogg,0.7,,4,0,4,0,0,2,2,20,,,,,531.1290866799973,530.4438670000018,,,,001,2021_May_04_1028,list_pa,2021.1.4,60.12726536947906,
sounds/gauche.ogg,0.7,,4,0,4,0,0,3,3,19,,,,,532.6293411799998,None,,,,001,2021_May_04_1028,list_pa,2021.1.4,60.12726536947906,
sounds/droite.ogg,0.7,,4,0,4,0,0,4,4,32,,,,,534.129653279997,533.445378299999,,,,001,2021_May_04_1028,list_pa,2021.1.4,60.12726536947906,
sounds/gauche.ogg,0.7,,4,0,4,0,0,5,5,3,,,,,535.6300614799984,534.9449995000032,,,,001,2021_May_04_1028,list_pa,2021.1.4,60.12726536947906,
sounds/droite.ogg,0.7,,4,0,4,0,0,6,6,45,,,,,537.1301218799999,None,,,,001,2021_May_04_1028,list_pa,2021.1.4,60.12726536947906,
sounds/gauche.ogg,0.7,,4,0,4,0,0,7,7,11,,,,,538.6305684800027,537.9448990000019,,,,001,2021_May_04_1028,list_pa,2021.1.4,60.12726536947906,
sounds/gauche.ogg,0.7,,4,0,4,0,0,8,8,22,,,,,540.1307987800028,539.4459155000004,,,,001,2021_May_04_1028,list_pa,2021.1.4,60.12726536947906,
sounds/gauche.ogg,0.7,,4,0,4,0,0,9,9,17,,,,,541.6312216799997,540.9459566000005,,,,001,2021_May_04_1028,list_pa,2021.1.4,60.12726536947906,
sounds/droite.ogg,0.7,,4,0,4,0,0,10,10,37,,,,,543.1314666800026,542.4466911999989,,,,001,2021_May_04_1028,list_pa,2021.1.4,60.12726536947906,
sounds/droite.ogg,0.7,,4,0,4,0,0,11,11,30,,,,,544.6324621800013,543.9470986000015,,,,001,2021_May_04_1028,list_pa,2021.1.4,60.12726536947906,
sounds/gauche.ogg,0.7,,4,0,4,0,0,12,12,14,,,,,546.1329305800027,545.447207899997,,,,001,2021_May_04_1028,list_pa,2021.1.4,60.12726536947906,
sounds/gauche.ogg,0.7,,4,0,4,0,0,13,13,5,,,,,547.6324789799983,546.9472269000034,,,,001,2021_May_04_1028,list_pa,2021.1.4,60.12726536947906,
sounds/gauche.ogg,0.7,,4,0,4,0,0,14,14,7,,,,,549.1327884799975,548.4471173999991,,,,001,2021_May_04_1028,list_pa,2021.1.4,60.12726536947906,
sounds/gauche.ogg,0.7,,4,0,4,0,0,15,15,23,,,,,550.6336085799994,None,,,,001,2021_May_04_1028,list_pa,2021.1.4,60.12726536947906,
sounds/gauche.ogg,0.7,,4,0,4,0,0,16,16,16,,,,,552.1335329799986,551.4476785000006,,,,001,2021_May_04_1028,list_pa,2021.1.4,60.12726536947906,
sounds/gauche.ogg,0.7,,4,0,4,0,0,17,17,0,,,,,553.6335918800032,552.9486338999995,,,,001,2021_May_04_1028,list_pa,2021.1.4,60.12726536947906,
sounds/gauche.ogg,0.7,,4,0,4,0,0,18,18,2,,,,,555.1341486800011,None,,,,001,2021_May_04_1028,list_pa,2021.1.4,60.12726536947906,
sounds/droite.ogg,0.7,,4,0,4,0,0,19,19,27,,,,,556.6348220799991,555.9489119999998,,,,001,2021_May_04_1028,list_pa,2021.1.4,60.12726536947906,
sounds/gauche.ogg,0.7,,4,0,4,0,0,20,20,24,,,,,558.1346566799984,557.4496994000001,,,,001,2021_May_04_1028,list_pa,2021.1.4,60.12726536947906,
sounds/gauche.ogg,0.7,,4,0,4,0,0,21,21,8,,,,,559.6351248799983,558.9501375999971,,,,001,2021_May_04_1028,list_pa,2021.1.4,60.12726536947906,
sounds/gauche.ogg,0.7,,4,0,4,0,0,22,22,21,,,,,561.1354967799998,560.4499743999986,,,,001,2021_May_04_1028,list_pa,2021.1.4,60.12726536947906,
sounds/droite.ogg,0.7,,4,0,4,0,0,23,23,33,,,,,562.6349580800015,561.9507836999983,,,,001,2021_May_04_1028,list_pa,2021.1.4,60.12726536947906,
sounds/droite.ogg,0.7,,4,0,4,0,0,24,24,46,,,,,564.1354717799986,563.4510520999975,,,,001,2021_May_04_1028,list_pa,2021.1.4,60.12726536947906,
sounds/droite.ogg,0.7,,4,0,4,0,0,25,25,25,,,,,565.6355097799969,564.951052999997,,,,001,2021_May_04_1028,list_pa,2021.1.4,60.12726536947906,
sounds/droite.ogg,0.7,,4,0,4,0,0,26,26,44,,,,,567.1361456800005,566.4510534000001,,,,001,2021_May_04_1028,list_pa,2021.1.4,60.12726536947906,
sounds/gauche.ogg,0.7,,4,0,4,0,0,27,27,15,,,,,568.6360388800022,567.9518236000004,,,,001,2021_May_04_1028,list_pa,2021.1.4,60.12726536947906,
sounds/droite.ogg,0.7,,4,0,4,0,0,28,28,29,,,,,570.137047379998,569.4513519999964,,,,001,2021_May_04_1028,list_pa,2021.1.4,60.12726536947906,
sounds/droite.ogg,0.7,,4,0,4,0,0,29,29,39,,,,,571.6370146799964,None,,,,001,2021_May_04_1028,list_pa,2021.1.4,60.12726536947906,
sounds/droite.ogg,0.7,,4,0,4,0,0,30,30,47,,,,,573.1374415800019,572.4523148000007,,,,001,2021_May_04_1028,list_pa,2021.1.4,60.12726536947906,
sounds/gauche.ogg,0.7,,4,0,4,0,0,31,31,6,,,,,574.6384316800031,573.9532456000015,,,,001,2021_May_04_1028,list_pa,2021.1.4,60.12726536947906,
sounds/droite.ogg,0.7,,4,0,4,0,0,32,32,41,,,,,576.1380420799978,None,,,,001,2021_May_04_1028,list_pa,2021.1.4,60.12726536947906,
sounds/droite.ogg,0.7,,4,0,4,0,0,33,33,42,,,,,577.6385593800005,576.953178900003,,,,001,2021_May_04_1028,list_pa,2021.1.4,60.12726536947906,
sounds/droite.ogg,0.7,,4,0,4,0,0,34,34,35,,,,,579.1389471799994,578.4539004000035,,,,001,2021_May_04_1028,list_pa,2021.1.4,60.12726536947906,
sounds/droite.ogg,0.7,,4,0,4,0,0,35,35,36,,,,,580.6392089799992,579.9543609000029,,,,001,2021_May_04_1028,list_pa,2021.1.4,60.12726536947906,
sounds/gauche.ogg,0.7,,4,0,4,0,0,36,36,9,,,,,582.1394715799979,581.4546816000002,,,,001,2021_May_04_1028,list_pa,2021.1.4,60.12726536947906,
sounds/droite.ogg,0.7,,4,0,4,0,0,37,37,26,,,,,583.6397659799986,582.954816700003,,,,001,2021_May_04_1028,list_pa,2021.1.4,60.12726536947906,
sounds/droite.ogg,0.7,,4,0,4,0,0,38,38,28,,,,,585.1401575799973,584.4553757000031,,,,001,2021_May_04_1028,list_pa,2021.1.4,60.12726536947906,
sounds/droite.ogg,0.7,,4,0,4,0,0,39,39,38,,,,,586.6401161800022,585.9556260000027,,,,001,2021_May_04_1028,list_pa,2021.1.4,60.12726536947906,
sounds/droite.ogg,0.7,,4,0,4,0,0,40,40,43,,,,,588.1410209800015,587.4554917999994,,,,001,2021_May_04_1028,list_pa,2021.1.4,60.12726536947906,
sounds/gauche.ogg,0.7,,4,0,4,0,0,41,41,12,,,,,589.6409826800009,588.9565890000013,,,,001,2021_May_04_1028,list_pa,2021.1.4,60.12726536947906,
sounds/gauche.ogg,0.7,,4,0,4,0,0,42,42,10,,,,,591.1411060800019,590.4566873000003,,,,001,2021_May_04_1028,list_pa,2021.1.4,60.12726536947906,
sounds/gauche.ogg,0.7,,4,0,4,0,0,43,43,4,,,,,592.6418078799979,None,,,,001,2021_May_04_1028,list_pa,2021.1.4,60.12726536947906,
sounds/droite.ogg,0.7,,4,0,4,0,0,44,44,48,,,,,594.1417711800023,None,,,,001,2021_May_04_1028,list_pa,2021.1.4,60.12726536947906,
sounds/gauche.ogg,0.7,,4,0,4,0,0,45,45,1,,,,,595.642214380001,594.9569809000022,,,,001,2021_May_04_1028,list_pa,2021.1.4,60.12726536947906,
sounds/droite.ogg,0.7,,4,0,4,0,0,46,46,31,,,,,597.1434537800014,596.4572714000024,,,,001,2021_May_04_1028,list_pa,2021.1.4,60.12726536947906,
sounds/gauche.ogg,0.7,,4,0,4,0,0,47,47,13,,,,,598.6592989799974,597.9569613999993,,,,001,2021_May_04_1028,list_pa,2021.1.4,60.12726536947906,
sounds/droite.ogg,0.7,,4,0,4,0,0,48,48,49,,,,,600.1598798799969,599.4738893999966,,,,001,2021_May_04_1028,list_pa,2021.1.4,60.12726536947906,
sounds/droite.ogg,0.7,,4,0,4,0,0,49,49,40,,,,,601.6602630799971,600.974913799997,,,,001,2021_May_04_1028,list_pa,2021.1.4,60.12726536947906,
,,30,4,0,4,0,,,,,0,0,0,0,,,602.4909027000031,None,,001,2021_May_04_1028,list_pa,2021.1.4,60.12726536947906,
,,29,4,0,4,0,,,,,0,1,1,1,,,603.4925145000016,None,,001,2021_May_04_1028,list_pa,2021.1.4,60.12726536947906,
,,28,4,0,4,0,,,,,0,2,2,2,,,604.4924641000034,None,,001,2021_May_04_1028,list_pa,2021.1.4,60.12726536947906,
,,27,4,0,4,0,,,,,0,3,3,3,,,605.4926412999994,None,,001,2021_May_04_1028,list_pa,2021.1.4,60.12726536947906,
,,26,4,0,4,0,,,,,0,4,4,4,,,606.4932210999978,None,,001,2021_May_04_1028,list_pa,2021.1.4,60.12726536947906,
,,25,4,0,4,0,,,,,0,5,5,5,,,607.5425677000021,None,,001,2021_May_04_1028,list_pa,2021.1.4,60.12726536947906,
,,24,4,0,4,0,,,,,0,6,6,6,,,608.4691011000032,None,,001,2021_May_04_1028,list_pa,2021.1.4,60.12726536947906,
,,23,4,0,4,0,,,,,0,7,7,7,,,609.4913484999997,None,,001,2021_May_04_1028,list_pa,2021.1.4,60.12726536947906,
,,22,4,0,4,0,,,,,0,8,8,8,,,610.4930600000007,None,,001,2021_May_04_1028,list_pa,2021.1.4,60.12726536947906,
,,21,4,0,4,0,,,,,0,9,9,9,,,None,None,,001,2021_May_04_1028,list_pa,2021.1.4,60.12726536947906,
,,20,4,0,4,0,,,,,0,10,10,10,,,None,None,,001,2021_May_04_1028,list_pa,2021.1.4,60.12726536947906,
,,19,4,0,4,0,,,,,0,11,11,11,,,None,None,,001,2021_May_04_1028,list_pa,2021.1.4,60.12726536947906,
,,18,4,0,4,0,,,,,0,12,12,12,,,None,None,,001,2021_May_04_1028,list_pa,2021.1.4,60.12726536947906,
,,17,4,0,4,0,,,,,0,13,13,13,,,None,None,,001,2021_May_04_1028,list_pa,2021.1.4,60.12726536947906,
,,16,4,0,4,0,,,,,0,14,14,14,,,None,None,,001,2021_May_04_1028,list_pa,2021.1.4,60.12726536947906,
,,15,4,0,4,0,,,,,0,15,15,15,,,None,None,,001,2021_May_04_1028,list_pa,2021.1.4,60.12726536947906,
,,14,4,0,4,0,,,,,0,16,16,16,,,None,None,,001,2021_May_04_1028,list_pa,2021.1.4,60.12726536947906,
,,13,4,0,4,0,,,,,0,17,17,17,,,None,None,,001,2021_May_04_1028,list_pa,2021.1.4,60.12726536947906,
,,12,4,0,4,0,,,,,0,18,18,18,,,None,None,,001,2021_May_04_1028,list_pa,2021.1.4,60.12726536947906,
,,11,4,0,4,0,,,,,0,19,19,19,,,None,None,,001,2021_May_04_1028,list_pa,2021.1.4,60.12726536947906,
,,10,4,0,4,0,,,,,0,20,20,20,,,None,None,,001,2021_May_04_1028,list_pa,2021.1.4,60.12726536947906,
,,9,4,0,4,0,,,,,0,21,21,21,,,None,None,,001,2021_May_04_1028,list_pa,2021.1.4,60.12726536947906,
,,8,4,0,4,0,,,,,0,22,22,22,,,None,None,,001,2021_May_04_1028,list_pa,2021.1.4,60.12726536947906,
,,7,4,0,4,0,,,,,0,23,23,23,,,None,None,,001,2021_May_04_1028,list_pa,2021.1.4,60.12726536947906,
,,6,4,0,4,0,,,,,0,24,24,24,,,None,None,,001,2021_May_04_1028,list_pa,2021.1.4,60.12726536947906,
,,5,4,0,4,0,,,,,0,25,25,25,,,None,None,,001,2021_May_04_1028,list_pa,2021.1.4,60.12726536947906,
,,4,4,0,4,0,,,,,0,26,26,26,,,None,None,,001,2021_May_04_1028,list_pa,2021.1.4,60.12726536947906,
,,3,4,0,4,0,,,,,0,27,27,27,,,None,None,,001,2021_May_04_1028,list_pa,2021.1.4,60.12726536947906,
,,2,4,0,4,0,,,,,0,28,28,28,,,None,None,,001,2021_May_04_1028,list_pa,2021.1.4,60.12726536947906,
,,1,4,0,4,0,,,,,0,29,29,29,,,None,None,,001,2021_May_04_1028,list_pa,2021.1.4,60.12726536947906,
,,0,4,0,4,0,,,,,0,30,30,30,,,None,None,,001,2021_May_04_1028,list_pa,2021.1.4,60.12726536947906,
,,,4,0,4,0,,,,,,,,,,,,,,001,2021_May_04_1028,list_pa,2021.1.4,60.12726536947906,
