word_stimuli,isi,countdown,trials.thisRepN,trials.thisTrialN,trials.thisN,trials.thisIndex,trial_loop.thisRepN,trial_loop.thisTrialN,trial_loop.thisN,trial_loop.thisIndex,trials_2.thisRepN,trials_2.thisTrialN,trials_2.thisN,trials_2.thisIndex,sound_exposure.started,sound_exposure.stopped,text.started,text.stopped,participant,session,date,expName,psychopyVersion,frameRate,
sounds/droite.ogg,0.7,,0,0,0,0,0,0,0,26,,,,,171.9076752800378,None,,,,001,2021_May_03_1429,list_pa,2021.1.4,60.56491318596255,
sounds/gauche.ogg,0.7,,0,0,0,0,0,1,1,5,,,,,173.40768888002495,172.7241212000372,,,,001,2021_May_03_1429,list_pa,2021.1.4,60.56491318596255,
sounds/droite.ogg,0.7,,0,0,0,0,0,2,2,39,,,,,174.90634328002344,174.22496970003704,,,,001,2021_May_03_1429,list_pa,2021.1.4,60.56491318596255,
sounds/droite.ogg,0.7,,0,0,0,0,0,3,3,37,,,,,176.40853878003546,None,,,,001,2021_May_03_1429,list_pa,2021.1.4,60.56491318596255,
sounds/droite.ogg,0.7,,0,0,0,0,0,4,4,45,,,,,177.90896957999794,177.2242658000323,,,,001,2021_May_03_1429,list_pa,2021.1.4,60.56491318596255,
sounds/droite.ogg,0.7,,0,0,0,0,0,5,5,47,,,,,179.4093414800358,178.72400789998937,,,,001,2021_May_03_1429,list_pa,2021.1.4,60.56491318596255,
sounds/droite.ogg,0.7,,0,0,0,0,0,6,6,27,,,,,180.90989998003934,None,,,,001,2021_May_03_1429,list_pa,2021.1.4,60.56491318596255,
sounds/droite.ogg,0.7,,0,0,0,0,0,7,7,43,,,,,182.41040188001935,181.72482350002974,,,,001,2021_May_03_1429,list_pa,2021.1.4,60.56491318596255,
sounds/gauche.ogg,0.7,,0,0,0,0,0,8,8,8,,,,,183.91036538003246,183.22744250000687,,,,001,2021_May_03_1429,list_pa,2021.1.4,60.56491318596255,
sounds/gauche.ogg,0.7,,0,0,0,0,0,9,9,16,,,,,185.41104268000927,184.72557579999557,,,,001,2021_May_03_1429,list_pa,2021.1.4,60.56491318596255,
sounds/gauche.ogg,0.7,,0,0,0,0,0,10,10,17,,,,,186.9107101800386,186.22613540000748,,,,001,2021_May_03_1429,list_pa,2021.1.4,60.56491318596255,
sounds/gauche.ogg,0.7,,0,0,0,0,0,11,11,19,,,,,188.4112837800407,187.72713369998382,,,,001,2021_May_03_1429,list_pa,2021.1.4,60.56491318596255,
sounds/gauche.ogg,0.7,,0,0,0,0,0,12,12,23,,,,,189.9113983800402,189.22870179999154,,,,001,2021_May_03_1429,list_pa,2021.1.4,60.56491318596255,
sounds/droite.ogg,0.7,,0,0,0,0,0,13,13,31,,,,,191.4116133799893,190.72586740000406,,,,001,2021_May_03_1429,list_pa,2021.1.4,60.56491318596255,
sounds/droite.ogg,0.7,,0,0,0,0,0,14,14,34,,,,,192.91198218000355,192.22691480000503,,,,001,2021_May_03_1429,list_pa,2021.1.4,60.56491318596255,
sounds/droite.ogg,0.7,,0,0,0,0,0,15,15,44,,,,,194.41214957999765,None,,,,001,2021_May_03_1429,list_pa,2021.1.4,60.56491318596255,
sounds/gauche.ogg,0.7,,0,0,0,0,0,16,16,9,,,,,195.91289968000493,None,,,,001,2021_May_03_1429,list_pa,2021.1.4,60.56491318596255,
sounds/droite.ogg,0.7,,0,0,0,0,0,17,17,35,,,,,197.4130319800228,196.72882850002497,,,,001,2021_May_03_1429,list_pa,2021.1.4,60.56491318596255,
sounds/droite.ogg,0.7,,0,0,0,0,0,18,18,48,,,,,198.9126901800395,None,,,,001,2021_May_03_1429,list_pa,2021.1.4,60.56491318596255,
sounds/gauche.ogg,0.7,,0,0,0,0,0,19,19,15,,,,,200.4134950799984,199.72869120002724,,,,001,2021_May_03_1429,list_pa,2021.1.4,60.56491318596255,
sounds/gauche.ogg,0.7,,0,0,0,0,0,20,20,4,,,,,201.91411588001066,201.22878840001067,,,,001,2021_May_03_1429,list_pa,2021.1.4,60.56491318596255,
sounds/droite.ogg,0.7,,0,0,0,0,0,21,21,25,,,,,203.41395128003788,202.72870879998663,,,,001,2021_May_03_1429,list_pa,2021.1.4,60.56491318596255,
sounds/gauche.ogg,0.7,,0,0,0,0,0,22,22,2,,,,,204.9146414799965,204.22916640003677,,,,001,2021_May_03_1429,list_pa,2021.1.4,60.56491318596255,
sounds/gauche.ogg,0.7,,0,0,0,0,0,23,23,1,,,,,206.41519608002855,205.72933950001607,,,,001,2021_May_03_1429,list_pa,2021.1.4,60.56491318596255,
sounds/droite.ogg,0.7,,0,0,0,0,0,24,24,30,,,,,207.91517478004099,207.22902959998464,,,,001,2021_May_03_1429,list_pa,2021.1.4,60.56491318596255,
sounds/droite.ogg,0.7,,0,0,0,0,0,25,25,29,,,,,209.4152569800266,208.73032239999156,,,,001,2021_May_03_1429,list_pa,2021.1.4,60.56491318596255,
sounds/gauche.ogg,0.7,,0,0,0,0,0,26,26,12,,,,,210.9154691800126,210.2305541000096,,,,001,2021_May_03_1429,list_pa,2021.1.4,60.56491318596255,
sounds/droite.ogg,0.7,,0,0,0,0,0,27,27,42,,,,,212.41610548002646,211.7309724999941,,,,001,2021_May_03_1429,list_pa,2021.1.4,60.56491318596255,
sounds/droite.ogg,0.7,,0,0,0,0,0,28,28,46,,,,,213.91657038001577,213.23145389999263,,,,001,2021_May_03_1429,list_pa,2021.1.4,60.56491318596255,
sounds/droite.ogg,0.7,,0,0,0,0,0,29,29,49,,,,,215.41614298002096,None,,,,001,2021_May_03_1429,list_pa,2021.1.4,60.56491318596255,
sounds/droite.ogg,0.7,,0,0,0,0,0,30,30,38,,,,,216.91722658000654,216.2321520000114,,,,001,2021_May_03_1429,list_pa,2021.1.4,60.56491318596255,
sounds/gauche.ogg,0.7,,0,0,0,0,0,31,31,18,,,,,218.41697608001996,217.7323039000039,,,,001,2021_May_03_1429,list_pa,2021.1.4,60.56491318596255,
sounds/droite.ogg,0.7,,0,0,0,0,0,32,32,28,,,,,219.916865779995,219.23256500001298,,,,001,2021_May_03_1429,list_pa,2021.1.4,60.56491318596255,
sounds/droite.ogg,0.7,,0,0,0,0,0,33,33,36,,,,,221.41790908002295,220.73314229998505,,,,001,2021_May_03_1429,list_pa,2021.1.4,60.56491318596255,
sounds/gauche.ogg,0.7,,0,0,0,0,0,34,34,14,,,,,222.91805737998803,222.23311390000163,,,,001,2021_May_03_1429,list_pa,2021.1.4,60.56491318596255,
sounds/gauche.ogg,0.7,,0,0,0,0,0,35,35,21,,,,,224.4187526799855,223.7332542000222,,,,001,2021_May_03_1429,list_pa,2021.1.4,60.56491318596255,
sounds/gauche.ogg,0.7,,0,0,0,0,0,36,36,10,,,,,225.91939108001534,225.23407220002264,,,,001,2021_May_03_1429,list_pa,2021.1.4,60.56491318596255,
sounds/gauche.ogg,0.7,,0,0,0,0,0,37,37,22,,,,,227.41935428002617,226.7340493000229,,,,001,2021_May_03_1429,list_pa,2021.1.4,60.56491318596255,
sounds/droite.ogg,0.7,,0,0,0,0,0,38,38,33,,,,,228.9195122800069,228.2342989000026,,,,001,2021_May_03_1429,list_pa,2021.1.4,60.56491318596255,
sounds/gauche.ogg,0.7,,0,0,0,0,0,39,39,0,,,,,230.41964418002172,229.73497560003307,,,,001,2021_May_03_1429,list_pa,2021.1.4,60.56491318596255,
sounds/gauche.ogg,0.7,,0,0,0,0,0,40,40,3,,,,,231.917853080004,None,,,,001,2021_May_03_1429,list_pa,2021.1.4,60.56491318596255,
sounds/gauche.ogg,0.7,,0,0,0,0,0,41,41,13,,,,,233.4208040800062,232.73508850001963,,,,001,2021_May_03_1429,list_pa,2021.1.4,60.56491318596255,
sounds/gauche.ogg,0.7,,0,0,0,0,0,42,42,24,,,,,234.92067997999257,234.23554800002603,,,,001,2021_May_03_1429,list_pa,2021.1.4,60.56491318596255,
sounds/gauche.ogg,0.7,,0,0,0,0,0,43,43,7,,,,,236.42092998003355,None,,,,001,2021_May_03_1429,list_pa,2021.1.4,60.56491318596255,
sounds/droite.ogg,0.7,,0,0,0,0,0,44,44,32,,,,,237.9212586800335,237.23619299998973,,,,001,2021_May_03_1429,list_pa,2021.1.4,60.56491318596255,
sounds/droite.ogg,0.7,,0,0,0,0,0,45,45,41,,,,,239.42157238003566,238.73513260000618,,,,001,2021_May_03_1429,list_pa,2021.1.4,60.56491318596255,
sounds/gauche.ogg,0.7,,0,0,0,0,0,46,46,6,,,,,240.92184828004102,240.2368932000245,,,,001,2021_May_03_1429,list_pa,2021.1.4,60.56491318596255,
sounds/droite.ogg,0.7,,0,0,0,0,0,47,47,40,,,,,242.42208528004122,241.73746189998928,,,,001,2021_May_03_1429,list_pa,2021.1.4,60.56491318596255,
sounds/gauche.ogg,0.7,,0,0,0,0,0,48,48,20,,,,,243.92192637999543,243.2392691000132,,,,001,2021_May_03_1429,list_pa,2021.1.4,60.56491318596255,
sounds/gauche.ogg,0.7,,0,0,0,0,0,49,49,11,,,,,245.42306517999387,244.73757280001882,,,,001,2021_May_03_1429,list_pa,2021.1.4,60.56491318596255,
,,30,0,0,0,0,,,,,0,0,0,0,,,246.34699410002213,None,,001,2021_May_03_1429,list_pa,2021.1.4,60.56491318596255,
,,29,0,0,0,0,,,,,0,1,1,1,,,247.25538260000758,None,,001,2021_May_03_1429,list_pa,2021.1.4,60.56491318596255,
,,28,0,0,0,0,,,,,0,2,2,2,,,248.25534780003363,None,,001,2021_May_03_1429,list_pa,2021.1.4,60.56491318596255,
,,27,0,0,0,0,,,,,0,3,3,3,,,249.2555113999988,None,,001,2021_May_03_1429,list_pa,2021.1.4,60.56491318596255,
,,26,0,0,0,0,,,,,0,4,4,4,,,250.2554475000361,None,,001,2021_May_03_1429,list_pa,2021.1.4,60.56491318596255,
,,25,0,0,0,0,,,,,0,5,5,5,,,251.2555871999939,None,,001,2021_May_03_1429,list_pa,2021.1.4,60.56491318596255,
,,24,0,0,0,0,,,,,0,6,6,6,,,252.25440050003817,None,,001,2021_May_03_1429,list_pa,2021.1.4,60.56491318596255,
,,23,0,0,0,0,,,,,0,7,7,7,,,253.25630250002723,None,,001,2021_May_03_1429,list_pa,2021.1.4,60.56491318596255,
,,22,0,0,0,0,,,,,0,8,8,8,,,254.2565618000226,None,,001,2021_May_03_1429,list_pa,2021.1.4,60.56491318596255,
,,21,0,0,0,0,,,,,0,9,9,9,,,255.25748010003008,None,,001,2021_May_03_1429,list_pa,2021.1.4,60.56491318596255,
,,20,0,0,0,0,,,,,0,10,10,10,,,256.2567420999985,None,,001,2021_May_03_1429,list_pa,2021.1.4,60.56491318596255,
,,19,0,0,0,0,,,,,0,11,11,11,,,257.25676399999065,None,,001,2021_May_03_1429,list_pa,2021.1.4,60.56491318596255,
,,18,0,0,0,0,,,,,0,12,12,12,,,258.2578537000227,None,,001,2021_May_03_1429,list_pa,2021.1.4,60.56491318596255,
,,17,0,0,0,0,,,,,0,13,13,13,,,259.2571537999902,None,,001,2021_May_03_1429,list_pa,2021.1.4,60.56491318596255,
,,16,0,0,0,0,,,,,0,14,14,14,,,260.2575426999829,None,,001,2021_May_03_1429,list_pa,2021.1.4,60.56491318596255,
,,15,0,0,0,0,,,,,0,15,15,15,,,261.2577685000142,None,,001,2021_May_03_1429,list_pa,2021.1.4,60.56491318596255,
,,14,0,0,0,0,,,,,0,16,16,16,,,262.25818160001654,None,,001,2021_May_03_1429,list_pa,2021.1.4,60.56491318596255,
,,13,0,0,0,0,,,,,0,17,17,17,,,263.2579310000292,None,,001,2021_May_03_1429,list_pa,2021.1.4,60.56491318596255,
,,12,0,0,0,0,,,,,0,18,18,18,,,264.2582213000278,None,,001,2021_May_03_1429,list_pa,2021.1.4,60.56491318596255,
,,11,0,0,0,0,,,,,0,19,19,19,,,265.2582226000377,None,,001,2021_May_03_1429,list_pa,2021.1.4,60.56491318596255,
,,10,0,0,0,0,,,,,0,20,20,20,,,266.2584896000335,None,,001,2021_May_03_1429,list_pa,2021.1.4,60.56491318596255,
,,9,0,0,0,0,,,,,0,21,21,21,,,267.258462400001,None,,001,2021_May_03_1429,list_pa,2021.1.4,60.56491318596255,
,,8,0,0,0,0,,,,,0,22,22,22,,,268.2587443999946,None,,001,2021_May_03_1429,list_pa,2021.1.4,60.56491318596255,
,,7,0,0,0,0,,,,,0,23,23,23,,,269.24288750003325,None,,001,2021_May_03_1429,list_pa,2021.1.4,60.56491318596255,
,,6,0,0,0,0,,,,,0,24,24,24,,,270.24308769998606,None,,001,2021_May_03_1429,list_pa,2021.1.4,60.56491318596255,
,,5,0,0,0,0,,,,,0,25,25,25,,,271.24310870002955,None,,001,2021_May_03_1429,list_pa,2021.1.4,60.56491318596255,
,,4,0,0,0,0,,,,,0,26,26,26,,,272.243247800041,None,,001,2021_May_03_1429,list_pa,2021.1.4,60.56491318596255,
,,3,0,0,0,0,,,,,0,27,27,27,,,273.2439015000127,None,,001,2021_May_03_1429,list_pa,2021.1.4,60.56491318596255,
,,2,0,0,0,0,,,,,0,28,28,28,,,274.2437026000116,None,,001,2021_May_03_1429,list_pa,2021.1.4,60.56491318596255,
,,1,0,0,0,0,,,,,0,29,29,29,,,275.24623230000725,None,,001,2021_May_03_1429,list_pa,2021.1.4,60.56491318596255,
,,0,0,0,0,0,,,,,0,30,30,30,,,276.24406080000335,None,,001,2021_May_03_1429,list_pa,2021.1.4,60.56491318596255,
,,,0,0,0,0,,,,,,,,,,,,,,001,2021_May_03_1429,list_pa,2021.1.4,60.56491318596255,
sounds/gauche.ogg,0.7,,1,0,1,0,0,0,0,3,,,,,277.9630138799897,None,,,,001,2021_May_03_1429,list_pa,2021.1.4,60.56491318596255,
sounds/gauche.ogg,0.7,,1,0,1,0,0,1,1,23,,,,,279.4632535800105,278.7768529999885,,,,001,2021_May_03_1429,list_pa,2021.1.4,60.56491318596255,
sounds/droite.ogg,0.7,,1,0,1,0,0,2,2,26,,,,,280.9638754800311,280.2768070999882,,,,001,2021_May_03_1429,list_pa,2021.1.4,60.56491318596255,
sounds/droite.ogg,0.7,,1,0,1,0,0,3,3,43,,,,,282.46420088000593,281.77821890002815,,,,001,2021_May_03_1429,list_pa,2021.1.4,60.56491318596255,
sounds/droite.ogg,0.7,,1,0,1,0,0,4,4,28,,,,,283.96419207999713,283.2785848000203,,,,001,2021_May_03_1429,list_pa,2021.1.4,60.56491318596255,
sounds/droite.ogg,0.7,,1,0,1,0,0,5,5,37,,,,,285.4641725800233,284.778105000034,,,,001,2021_May_03_1429,list_pa,2021.1.4,60.56491318596255,
sounds/droite.ogg,0.7,,1,0,1,0,0,6,6,36,,,,,286.9644568800344,286.2791712000035,,,,001,2021_May_03_1429,list_pa,2021.1.4,60.56491318596255,
sounds/gauche.ogg,0.7,,1,0,1,0,0,7,7,18,,,,,288.46524768000234,287.77907839999534,,,,001,2021_May_03_1429,list_pa,2021.1.4,60.56491318596255,
sounds/droite.ogg,0.7,,1,0,1,0,0,8,8,41,,,,,289.96347618001744,None,,,,001,2021_May_03_1429,list_pa,2021.1.4,60.56491318596255,
sounds/gauche.ogg,0.7,,1,0,1,0,0,9,9,8,,,,,291.46510378001256,290.77981600002386,,,,001,2021_May_03_1429,list_pa,2021.1.4,60.56491318596255,
sounds/droite.ogg,0.7,,1,0,1,0,0,10,10,29,,,,,292.96569338002007,292.2805962000275,,,,001,2021_May_03_1429,list_pa,2021.1.4,60.56491318596255,
sounds/gauche.ogg,0.7,,1,0,1,0,0,11,11,24,,,,,294.465794980037,None,,,,001,2021_May_03_1429,list_pa,2021.1.4,60.56491318596255,
sounds/gauche.ogg,0.7,,1,0,1,0,0,12,12,2,,,,,295.9661967800115,295.281275300018,,,,001,2021_May_03_1429,list_pa,2021.1.4,60.56491318596255,
sounds/droite.ogg,0.7,,1,0,1,0,0,13,13,42,,,,,297.4668626800179,296.7811867999844,,,,001,2021_May_03_1429,list_pa,2021.1.4,60.56491318596255,
sounds/gauche.ogg,0.7,,1,0,1,0,0,14,14,12,,,,,298.96676248001165,298.2819160000072,,,,001,2021_May_03_1429,list_pa,2021.1.4,60.56491318596255,
sounds/gauche.ogg,0.7,,1,0,1,0,0,15,15,0,,,,,300.46683667999457,299.7815630999976,,,,001,2021_May_03_1429,list_pa,2021.1.4,60.56491318596255,
sounds/gauche.ogg,0.7,,1,0,1,0,0,16,16,20,,,,,301.96711358000755,301.2825106999953,,,,001,2021_May_03_1429,list_pa,2021.1.4,60.56491318596255,
sounds/droite.ogg,0.7,,1,0,1,0,0,17,17,27,,,,,303.4647034799913,302.78249230002984,,,,001,2021_May_03_1429,list_pa,2021.1.4,60.56491318596255,
sounds/gauche.ogg,0.7,,1,0,1,0,0,18,18,6,,,,,304.96768258003283,304.2830995999975,,,,001,2021_May_03_1429,list_pa,2021.1.4,60.56491318596255,
sounds/droite.ogg,0.7,,1,0,1,0,0,19,19,46,,,,,306.4515451800311,305.7820616000099,,,,001,2021_May_03_1429,list_pa,2021.1.4,60.56491318596255,
sounds/droite.ogg,0.7,,1,0,1,0,0,20,20,39,,,,,307.9514870799961,307.2669280000264,,,,001,2021_May_03_1429,list_pa,2021.1.4,60.56491318596255,
sounds/gauche.ogg,0.7,,1,0,1,0,0,21,21,22,,,,,309.45226098001,308.7668018999975,,,,001,2021_May_03_1429,list_pa,2021.1.4,60.56491318596255,
sounds/droite.ogg,0.7,,1,0,1,0,0,22,22,25,,,,,310.95274518002986,None,,,,001,2021_May_03_1429,list_pa,2021.1.4,60.56491318596255,
sounds/droite.ogg,0.7,,1,0,1,0,0,23,23,30,,,,,312.4533341800328,311.76688489998924,,,,001,2021_May_03_1429,list_pa,2021.1.4,60.56491318596255,
sounds/droite.ogg,0.7,,1,0,1,0,0,24,24,45,,,,,313.95088108003836,None,,,,001,2021_May_03_1429,list_pa,2021.1.4,60.56491318596255,
sounds/gauche.ogg,0.7,,1,0,1,0,0,25,25,21,,,,,315.4533158800099,None,,,,001,2021_May_03_1429,list_pa,2021.1.4,60.56491318596255,
sounds/droite.ogg,0.7,,1,0,1,0,0,26,26,44,,,,,316.95454798002027,316.2686774000176,,,,001,2021_May_03_1429,list_pa,2021.1.4,60.56491318596255,
sounds/droite.ogg,0.7,,1,0,1,0,0,27,27,35,,,,,318.4545677799964,317.7689382000244,,,,001,2021_May_03_1429,list_pa,2021.1.4,60.56491318596255,
sounds/gauche.ogg,0.7,,1,0,1,0,0,28,28,10,,,,,319.9547364800004,319.26874610001687,,,,001,2021_May_03_1429,list_pa,2021.1.4,60.56491318596255,
sounds/gauche.ogg,0.7,,1,0,1,0,0,29,29,1,,,,,321.4549887800007,320.76992649998283,,,,001,2021_May_03_1429,list_pa,2021.1.4,60.56491318596255,
sounds/gauche.ogg,0.7,,1,0,1,0,0,30,30,11,,,,,322.9551475799875,322.2703622999834,,,,001,2021_May_03_1429,list_pa,2021.1.4,60.56491318596255,
sounds/droite.ogg,0.7,,1,0,1,0,0,31,31,38,,,,,324.4556603799923,323.771034400037,,,,001,2021_May_03_1429,list_pa,2021.1.4,60.56491318596255,
sounds/gauche.ogg,0.7,,1,0,1,0,0,32,32,13,,,,,325.95582378001416,325.2707909999881,,,,001,2021_May_03_1429,list_pa,2021.1.4,60.56491318596255,
sounds/droite.ogg,0.7,,1,0,1,0,0,33,33,49,,,,,327.4559789800318,326.77066249999916,,,,001,2021_May_03_1429,list_pa,2021.1.4,60.56491318596255,
sounds/gauche.ogg,0.7,,1,0,1,0,0,34,34,17,,,,,328.9561097800382,328.27131560002454,,,,001,2021_May_03_1429,list_pa,2021.1.4,60.56491318596255,
sounds/droite.ogg,0.7,,1,0,1,0,0,35,35,40,,,,,330.4564520800253,None,,,,001,2021_May_03_1429,list_pa,2021.1.4,60.56491318596255,
sounds/gauche.ogg,0.7,,1,0,1,0,0,36,36,15,,,,,331.95572827998546,331.27162580000004,,,,001,2021_May_03_1429,list_pa,2021.1.4,60.56491318596255,
sounds/gauche.ogg,0.7,,1,0,1,0,0,37,37,14,,,,,333.45730268004115,332.77200920000905,,,,001,2021_May_03_1429,list_pa,2021.1.4,60.56491318596255,
sounds/gauche.ogg,0.7,,1,0,1,0,0,38,38,4,,,,,334.9569656800362,None,,,,001,2021_May_03_1429,list_pa,2021.1.4,60.56491318596255,
sounds/droite.ogg,0.7,,1,0,1,0,0,39,39,47,,,,,336.4577663800213,335.77302210003836,,,,001,2021_May_03_1429,list_pa,2021.1.4,60.56491318596255,
sounds/gauche.ogg,0.7,,1,0,1,0,0,40,40,16,,,,,337.9577333800029,337.27317609998863,,,,001,2021_May_03_1429,list_pa,2021.1.4,60.56491318596255,
sounds/gauche.ogg,0.7,,1,0,1,0,0,41,41,5,,,,,339.4589324799948,338.77334760001395,,,,001,2021_May_03_1429,list_pa,2021.1.4,60.56491318596255,
sounds/droite.ogg,0.7,,1,0,1,0,0,42,42,33,,,,,340.95916808004256,340.27363559999503,,,,001,2021_May_03_1429,list_pa,2021.1.4,60.56491318596255,
sounds/droite.ogg,0.7,,1,0,1,0,0,43,43,48,,,,,342.45877947999395,341.77383710001595,,,,001,2021_May_03_1429,list_pa,2021.1.4,60.56491318596255,
sounds/gauche.ogg,0.7,,1,0,1,0,0,44,44,7,,,,,343.95917848000533,343.2746409000247,,,,001,2021_May_03_1429,list_pa,2021.1.4,60.56491318596255,
sounds/gauche.ogg,0.7,,1,0,1,0,0,45,45,9,,,,,345.45966687999896,344.7747274999856,,,,001,2021_May_03_1429,list_pa,2021.1.4,60.56491318596255,
sounds/droite.ogg,0.7,,1,0,1,0,0,46,46,34,,,,,346.9599500800017,346.2748891999945,,,,001,2021_May_03_1429,list_pa,2021.1.4,60.56491318596255,
sounds/droite.ogg,0.7,,1,0,1,0,0,47,47,31,,,,,348.4603324800031,None,,,,001,2021_May_03_1429,list_pa,2021.1.4,60.56491318596255,
sounds/gauche.ogg,0.7,,1,0,1,0,0,48,48,19,,,,,349.9605241800076,349.27385810000123,,,,001,2021_May_03_1429,list_pa,2021.1.4,60.56491318596255,
sounds/droite.ogg,0.7,,1,0,1,0,0,49,49,32,,,,,351.4608859800268,None,,,,001,2021_May_03_1429,list_pa,2021.1.4,60.56491318596255,
,,30,1,0,1,0,,,,,0,0,0,0,,,352.29163100000005,None,,001,2021_May_03_1429,list_pa,2021.1.4,60.56491318596255,
,,29,1,0,1,0,,,,,0,1,1,1,,,353.29304550000234,None,,001,2021_May_03_1429,list_pa,2021.1.4,60.56491318596255,
,,28,1,0,1,0,,,,,0,2,2,2,,,354.2932611000142,None,,001,2021_May_03_1429,list_pa,2021.1.4,60.56491318596255,
,,27,1,0,1,0,,,,,0,3,3,3,,,355.29320980003104,None,,001,2021_May_03_1429,list_pa,2021.1.4,60.56491318596255,
,,26,1,0,1,0,,,,,0,4,4,4,,,356.29386099998374,None,,001,2021_May_03_1429,list_pa,2021.1.4,60.56491318596255,
,,25,1,0,1,0,,,,,0,5,5,5,,,357.2944751000032,None,,001,2021_May_03_1429,list_pa,2021.1.4,60.56491318596255,
,,24,1,0,1,0,,,,,0,6,6,6,,,358.2943485000287,None,,001,2021_May_03_1429,list_pa,2021.1.4,60.56491318596255,
,,23,1,0,1,0,,,,,0,7,7,7,,,359.29431170003954,None,,001,2021_May_03_1429,list_pa,2021.1.4,60.56491318596255,
,,22,1,0,1,0,,,,,0,8,8,8,,,360.2948601000244,None,,001,2021_May_03_1429,list_pa,2021.1.4,60.56491318596255,
,,21,1,0,1,0,,,,,0,9,9,9,,,361.2948125000112,None,,001,2021_May_03_1429,list_pa,2021.1.4,60.56491318596255,
,,20,1,0,1,0,,,,,0,10,10,10,,,362.29497970000375,None,,001,2021_May_03_1429,list_pa,2021.1.4,60.56491318596255,
,,19,1,0,1,0,,,,,0,11,11,11,,,363.29514790000394,None,,001,2021_May_03_1429,list_pa,2021.1.4,60.56491318596255,
,,18,1,0,1,0,,,,,0,12,12,12,,,364.2958595000091,None,,001,2021_May_03_1429,list_pa,2021.1.4,60.56491318596255,
,,17,1,0,1,0,,,,,0,13,13,13,,,365.29592230002163,None,,001,2021_May_03_1429,list_pa,2021.1.4,60.56491318596255,
,,16,1,0,1,0,,,,,0,14,14,14,,,366.2955459000077,None,,001,2021_May_03_1429,list_pa,2021.1.4,60.56491318596255,
,,15,1,0,1,0,,,,,0,15,15,15,,,367.2968273999868,None,,001,2021_May_03_1429,list_pa,2021.1.4,60.56491318596255,
,,14,1,0,1,0,,,,,0,16,16,16,,,368.27898140001344,None,,001,2021_May_03_1429,list_pa,2021.1.4,60.56491318596255,
,,13,1,0,1,0,,,,,0,17,17,17,,,369.2791809000191,None,,001,2021_May_03_1429,list_pa,2021.1.4,60.56491318596255,
,,12,1,0,1,0,,,,,0,18,18,18,,,370.2795354000409,None,,001,2021_May_03_1429,list_pa,2021.1.4,60.56491318596255,
,,11,1,0,1,0,,,,,0,19,19,19,,,371.278813300014,None,,001,2021_May_03_1429,list_pa,2021.1.4,60.56491318596255,
,,10,1,0,1,0,,,,,0,20,20,20,,,372.2808348000399,None,,001,2021_May_03_1429,list_pa,2021.1.4,60.56491318596255,
,,9,1,0,1,0,,,,,0,21,21,21,,,373.2806930000079,None,,001,2021_May_03_1429,list_pa,2021.1.4,60.56491318596255,
,,8,1,0,1,0,,,,,0,22,22,22,,,374.28052359999856,None,,001,2021_May_03_1429,list_pa,2021.1.4,60.56491318596255,
,,7,1,0,1,0,,,,,0,23,23,23,,,375.2808589999913,None,,001,2021_May_03_1429,list_pa,2021.1.4,60.56491318596255,
,,6,1,0,1,0,,,,,0,24,24,24,,,376.28084369999124,None,,001,2021_May_03_1429,list_pa,2021.1.4,60.56491318596255,
,,5,1,0,1,0,,,,,0,25,25,25,,,377.28125609998824,None,,001,2021_May_03_1429,list_pa,2021.1.4,60.56491318596255,
,,4,1,0,1,0,,,,,0,26,26,26,,,378.2818417000235,None,,001,2021_May_03_1429,list_pa,2021.1.4,60.56491318596255,
,,3,1,0,1,0,,,,,0,27,27,27,,,379.28155100002186,None,,001,2021_May_03_1429,list_pa,2021.1.4,60.56491318596255,
,,2,1,0,1,0,,,,,0,28,28,28,,,380.2817237999989,None,,001,2021_May_03_1429,list_pa,2021.1.4,60.56491318596255,
,,1,1,0,1,0,,,,,0,29,29,29,,,381.2820163000142,None,,001,2021_May_03_1429,list_pa,2021.1.4,60.56491318596255,
,,0,1,0,1,0,,,,,0,30,30,30,,,382.2822176000336,None,,001,2021_May_03_1429,list_pa,2021.1.4,60.56491318596255,
,,,1,0,1,0,,,,,,,,,,,,,,001,2021_May_03_1429,list_pa,2021.1.4,60.56491318596255,
sounds/gauche.ogg,0.7,,2,0,2,0,0,0,0,24,,,,,383.9841947800363,None,,,,001,2021_May_03_1429,list_pa,2021.1.4,60.56491318596255,
sounds/gauche.ogg,0.7,,2,0,2,0,0,1,1,0,,,,,385.4849420800223,384.7990656000329,,,,001,2021_May_03_1429,list_pa,2021.1.4,60.56491318596255,
sounds/droite.ogg,0.7,,2,0,2,0,0,2,2,41,,,,,386.98512458001494,386.2993748000008,,,,001,2021_May_03_1429,list_pa,2021.1.4,60.56491318596255,
sounds/droite.ogg,0.7,,2,0,2,0,0,3,3,46,,,,,388.485372880043,387.80024220002815,,,,001,2021_May_03_1429,list_pa,2021.1.4,60.56491318596255,
sounds/droite.ogg,0.7,,2,0,2,0,0,4,4,48,,,,,389.98518878003813,None,,,,001,2021_May_03_1429,list_pa,2021.1.4,60.56491318596255,
sounds/droite.ogg,0.7,,2,0,2,0,0,5,5,31,,,,,391.4855341799906,390.7999649000121,,,,001,2021_May_03_1429,list_pa,2021.1.4,60.56491318596255,
sounds/gauche.ogg,0.7,,2,0,2,0,0,6,6,12,,,,,392.9860878800158,392.30094960000133,,,,001,2021_May_03_1429,list_pa,2021.1.4,60.56491318596255,
sounds/droite.ogg,0.7,,2,0,2,0,0,7,7,49,,,,,394.4865520799998,None,,,,001,2021_May_03_1429,list_pa,2021.1.4,60.56491318596255,
sounds/gauche.ogg,0.7,,2,0,2,0,0,8,8,17,,,,,395.98636827999724,395.30058159999317,,,,001,2021_May_03_1429,list_pa,2021.1.4,60.56491318596255,
sounds/droite.ogg,0.7,,2,0,2,0,0,9,9,28,,,,,397.4867910800152,396.8014075999963,,,,001,2021_May_03_1429,list_pa,2021.1.4,60.56491318596255,
sounds/gauche.ogg,0.7,,2,0,2,0,0,10,10,22,,,,,398.98679338003274,398.3021180999931,,,,001,2021_May_03_1429,list_pa,2021.1.4,60.56491318596255,
sounds/droite.ogg,0.7,,2,0,2,0,0,11,11,37,,,,,400.4871727800113,399.8026651000255,,,,001,2021_May_03_1429,list_pa,2021.1.4,60.56491318596255,
sounds/droite.ogg,0.7,,2,0,2,0,0,12,12,33,,,,,401.9874467800022,401.30271280003944,,,,001,2021_May_03_1429,list_pa,2021.1.4,60.56491318596255,
sounds/gauche.ogg,0.7,,2,0,2,0,0,13,13,18,,,,,403.48795918000394,402.80229830002645,,,,001,2021_May_03_1429,list_pa,2021.1.4,60.56491318596255,
sounds/gauche.ogg,0.7,,2,0,2,0,0,14,14,11,,,,,404.9883877800079,404.3034156000358,,,,001,2021_May_03_1429,list_pa,2021.1.4,60.56491318596255,
sounds/gauche.ogg,0.7,,2,0,2,0,0,15,15,10,,,,,406.4887209800421,405.80388920003315,,,,001,2021_May_03_1429,list_pa,2021.1.4,60.56491318596255,
sounds/gauche.ogg,0.7,,2,0,2,0,0,16,16,8,,,,,407.98887068001784,407.303864800022,,,,001,2021_May_03_1429,list_pa,2021.1.4,60.56491318596255,
sounds/droite.ogg,0.7,,2,0,2,0,0,17,17,26,,,,,409.4899204800371,408.8033766000299,,,,001,2021_May_03_1429,list_pa,2021.1.4,60.56491318596255,
sounds/droite.ogg,0.7,,2,0,2,0,0,18,18,30,,,,,410.98940618002086,None,,,,001,2021_May_03_1429,list_pa,2021.1.4,60.56491318596255,
sounds/gauche.ogg,0.7,,2,0,2,0,0,19,19,9,,,,,412.4898808800266,411.8047181000002,,,,001,2021_May_03_1429,list_pa,2021.1.4,60.56491318596255,
sounds/gauche.ogg,0.7,,2,0,2,0,0,20,20,19,,,,,413.99012208000056,413.30486800003564,,,,001,2021_May_03_1429,list_pa,2021.1.4,60.56491318596255,
sounds/gauche.ogg,0.7,,2,0,2,0,0,21,21,13,,,,,415.4905785800423,None,,,,001,2021_May_03_1429,list_pa,2021.1.4,60.56491318596255,
sounds/gauche.ogg,0.7,,2,0,2,0,0,22,22,14,,,,,416.9909162799944,416.3050952000194,,,,001,2021_May_03_1429,list_pa,2021.1.4,60.56491318596255,
sounds/droite.ogg,0.7,,2,0,2,0,0,23,23,29,,,,,418.49112128004197,417.80609410000034,,,,001,2021_May_03_1429,list_pa,2021.1.4,60.56491318596255,
sounds/droite.ogg,0.7,,2,0,2,0,0,24,24,32,,,,,419.99150598000267,419.3065133999917,,,,001,2021_May_03_1429,list_pa,2021.1.4,60.56491318596255,
sounds/gauche.ogg,0.7,,2,0,2,0,0,25,25,3,,,,,421.49275077999334,420.80727900000056,,,,001,2021_May_03_1429,list_pa,2021.1.4,60.56491318596255,
sounds/droite.ogg,0.7,,2,0,2,0,0,26,26,43,,,,,422.99231738001106,422.3074147999869,,,,001,2021_May_03_1429,list_pa,2021.1.4,60.56491318596255,
sounds/gauche.ogg,0.7,,2,0,2,0,0,27,27,15,,,,,424.4904161800281,423.80721739999717,,,,001,2021_May_03_1429,list_pa,2021.1.4,60.56491318596255,
sounds/droite.ogg,0.7,,2,0,2,0,0,28,28,45,,,,,425.9928804799914,None,,,,001,2021_May_03_1429,list_pa,2021.1.4,60.56491318596255,
sounds/droite.ogg,0.7,,2,0,2,0,0,29,29,39,,,,,427.4912623800104,426.80773900001077,,,,001,2021_May_03_1429,list_pa,2021.1.4,60.56491318596255,
sounds/gauche.ogg,0.7,,2,0,2,0,0,30,30,23,,,,,428.99445467998737,None,,,,001,2021_May_03_1429,list_pa,2021.1.4,60.56491318596255,
sounds/droite.ogg,0.7,,2,0,2,0,0,31,31,27,,,,,430.49357428003566,429.8082743000123,,,,001,2021_May_03_1429,list_pa,2021.1.4,60.56491318596255,
sounds/droite.ogg,0.7,,2,0,2,0,0,32,32,25,,,,,431.9939008800196,431.30858740000986,,,,001,2021_May_03_1429,list_pa,2021.1.4,60.56491318596255,
sounds/droite.ogg,0.7,,2,0,2,0,0,33,33,35,,,,,433.4938716800301,None,,,,001,2021_May_03_1429,list_pa,2021.1.4,60.56491318596255,
sounds/gauche.ogg,0.7,,2,0,2,0,0,34,34,4,,,,,434.9945666800253,434.30919930001255,,,,001,2021_May_03_1429,list_pa,2021.1.4,60.56491318596255,
sounds/droite.ogg,0.7,,2,0,2,0,0,35,35,34,,,,,436.4949665800435,435.80881230003433,,,,001,2021_May_03_1429,list_pa,2021.1.4,60.56491318596255,
sounds/gauche.ogg,0.7,,2,0,2,0,0,36,36,16,,,,,437.9952198799932,437.31018040003255,,,,001,2021_May_03_1429,list_pa,2021.1.4,60.56491318596255,
sounds/gauche.ogg,0.7,,2,0,2,0,0,37,37,20,,,,,439.4934000799898,438.81020700000226,,,,001,2021_May_03_1429,list_pa,2021.1.4,60.56491318596255,
sounds/droite.ogg,0.7,,2,0,2,0,0,38,38,44,,,,,440.9965921800234,440.3109306000406,,,,001,2021_May_03_1429,list_pa,2021.1.4,60.56491318596255,
sounds/gauche.ogg,0.7,,2,0,2,0,0,39,39,21,,,,,442.5125807799981,441.81039440003224,,,,001,2021_May_03_1429,list_pa,2021.1.4,60.56491318596255,
sounds/gauche.ogg,0.7,,2,0,2,0,0,40,40,7,,,,,444.01278058000605,None,,,,001,2021_May_03_1429,list_pa,2021.1.4,60.56491318596255,
sounds/gauche.ogg,0.7,,2,0,2,0,0,41,41,2,,,,,445.5140072800335,None,,,,001,2021_May_03_1429,list_pa,2021.1.4,60.56491318596255,
sounds/droite.ogg,0.7,,2,0,2,0,0,42,42,40,,,,,447.0135455800104,446.3282257000101,,,,001,2021_May_03_1429,list_pa,2021.1.4,60.56491318596255,
sounds/droite.ogg,0.7,,2,0,2,0,0,43,43,36,,,,,448.5139330799924,None,,,,001,2021_May_03_1429,list_pa,2021.1.4,60.56491318596255,
sounds/gauche.ogg,0.7,,2,0,2,0,0,44,44,5,,,,,450.01444108001886,449.328043800022,,,,001,2021_May_03_1429,list_pa,2021.1.4,60.56491318596255,
sounds/gauche.ogg,0.7,,2,0,2,0,0,45,45,1,,,,,451.51470238002946,450.82943199999863,,,,001,2021_May_03_1429,list_pa,2021.1.4,60.56491318596255,
sounds/droite.ogg,0.7,,2,0,2,0,0,46,46,38,,,,,453.0148381800158,452.32937970000785,,,,001,2021_May_03_1429,list_pa,2021.1.4,60.56491318596255,
sounds/droite.ogg,0.7,,2,0,2,0,0,47,47,47,,,,,454.515152680024,453.82987489999505,,,,001,2021_May_03_1429,list_pa,2021.1.4,60.56491318596255,
sounds/gauche.ogg,0.7,,2,0,2,0,0,48,48,6,,,,,456.0152776799863,455.3302660000045,,,,001,2021_May_03_1429,list_pa,2021.1.4,60.56491318596255,
sounds/droite.ogg,0.7,,2,0,2,0,0,49,49,42,,,,,457.5156908799894,456.8306297000381,,,,001,2021_May_03_1429,list_pa,2021.1.4,60.56491318596255,
,,30,2,0,2,0,,,,,0,0,0,0,,,458.34675289998995,None,,001,2021_May_03_1429,list_pa,2021.1.4,60.56491318596255,
,,29,2,0,2,0,,,,,0,1,1,1,,,459.3467447999865,None,,001,2021_May_03_1429,list_pa,2021.1.4,60.56491318596255,
,,28,2,0,2,0,,,,,0,2,2,2,,,460.3480756999925,None,,001,2021_May_03_1429,list_pa,2021.1.4,60.56491318596255,
,,27,2,0,2,0,,,,,0,3,3,3,,,461.34801499999594,None,,001,2021_May_03_1429,list_pa,2021.1.4,60.56491318596255,
,,26,2,0,2,0,,,,,0,4,4,4,,,462.34828249999555,None,,001,2021_May_03_1429,list_pa,2021.1.4,60.56491318596255,
,,25,2,0,2,0,,,,,0,5,5,5,,,463.3488446000265,None,,001,2021_May_03_1429,list_pa,2021.1.4,60.56491318596255,
,,24,2,0,2,0,,,,,0,6,6,6,,,464.3485434000031,None,,001,2021_May_03_1429,list_pa,2021.1.4,60.56491318596255,
,,23,2,0,2,0,,,,,0,7,7,7,,,465.3316277000122,None,,001,2021_May_03_1429,list_pa,2021.1.4,60.56491318596255,
,,22,2,0,2,0,,,,,0,8,8,8,,,466.33269790001214,None,,001,2021_May_03_1429,list_pa,2021.1.4,60.56491318596255,
,,21,2,0,2,0,,,,,0,9,9,9,,,467.34839709999505,None,,001,2021_May_03_1429,list_pa,2021.1.4,60.56491318596255,
,,20,2,0,2,0,,,,,0,10,10,10,,,468.3486697000335,None,,001,2021_May_03_1429,list_pa,2021.1.4,60.56491318596255,
,,19,2,0,2,0,,,,,0,11,11,11,,,469.3322649000329,None,,001,2021_May_03_1429,list_pa,2021.1.4,60.56491318596255,
,,18,2,0,2,0,,,,,0,12,12,12,,,470.3500952000031,None,,001,2021_May_03_1429,list_pa,2021.1.4,60.56491318596255,
,,17,2,0,2,0,,,,,0,13,13,13,,,471.35029690002557,None,,001,2021_May_03_1429,list_pa,2021.1.4,60.56491318596255,
,,16,2,0,2,0,,,,,0,14,14,14,,,472.3502245999989,None,,001,2021_May_03_1429,list_pa,2021.1.4,60.56491318596255,
,,15,2,0,2,0,,,,,0,15,15,15,,,473.35068710002815,None,,001,2021_May_03_1429,list_pa,2021.1.4,60.56491318596255,
,,14,2,0,2,0,,,,,0,16,16,16,,,474.3508986000088,None,,001,2021_May_03_1429,list_pa,2021.1.4,60.56491318596255,
,,13,2,0,2,0,,,,,0,17,17,17,,,475.3509757000138,None,,001,2021_May_03_1429,list_pa,2021.1.4,60.56491318596255,
,,12,2,0,2,0,,,,,0,18,18,18,,,476.3510180999874,None,,001,2021_May_03_1429,list_pa,2021.1.4,60.56491318596255,
,,11,2,0,2,0,,,,,0,19,19,19,,,477.33495500002755,None,,001,2021_May_03_1429,list_pa,2021.1.4,60.56491318596255,
,,10,2,0,2,0,,,,,0,20,20,20,,,478.33552570000757,None,,001,2021_May_03_1429,list_pa,2021.1.4,60.56491318596255,
,,9,2,0,2,0,,,,,0,21,21,21,,,479.335447999998,None,,001,2021_May_03_1429,list_pa,2021.1.4,60.56491318596255,
,,8,2,0,2,0,,,,,0,22,22,22,,,480.335510600009,None,,001,2021_May_03_1429,list_pa,2021.1.4,60.56491318596255,
,,7,2,0,2,0,,,,,0,23,23,23,,,481.3352301000268,None,,001,2021_May_03_1429,list_pa,2021.1.4,60.56491318596255,
,,6,2,0,2,0,,,,,0,24,24,24,,,482.33591249998426,None,,001,2021_May_03_1429,list_pa,2021.1.4,60.56491318596255,
,,5,2,0,2,0,,,,,0,25,25,25,,,483.3368418000173,None,,001,2021_May_03_1429,list_pa,2021.1.4,60.56491318596255,
,,4,2,0,2,0,,,,,0,26,26,26,,,484.33584369998425,None,,001,2021_May_03_1429,list_pa,2021.1.4,60.56491318596255,
,,3,2,0,2,0,,,,,0,27,27,27,,,485.3365485999966,None,,001,2021_May_03_1429,list_pa,2021.1.4,60.56491318596255,
,,2,2,0,2,0,,,,,0,28,28,28,,,486.3192432000069,None,,001,2021_May_03_1429,list_pa,2021.1.4,60.56491318596255,
,,1,2,0,2,0,,,,,0,29,29,29,,,487.31977990001906,None,,001,2021_May_03_1429,list_pa,2021.1.4,60.56491318596255,
,,0,2,0,2,0,,,,,0,30,30,30,,,488.33757380000316,None,,001,2021_May_03_1429,list_pa,2021.1.4,60.56491318596255,
,,,2,0,2,0,,,,,,,,,,,,,,001,2021_May_03_1429,list_pa,2021.1.4,60.56491318596255,
sounds/gauche.ogg,0.7,,3,0,3,0,0,0,0,16,,,,,490.0719606799888,None,,,,001,2021_May_03_1429,list_pa,2021.1.4,60.56491318596255,
sounds/droite.ogg,0.7,,3,0,3,0,0,1,1,48,,,,,491.5728773800423,None,,,,001,2021_May_03_1429,list_pa,2021.1.4,60.56491318596255,
sounds/gauche.ogg,0.7,,3,0,3,0,0,2,2,17,,,,,493.07287628003394,492.387923900038,,,,001,2021_May_03_1429,list_pa,2021.1.4,60.56491318596255,
sounds/droite.ogg,0.7,,3,0,3,0,0,3,3,47,,,,,494.57412328004136,493.88801230001263,,,,001,2021_May_03_1429,list_pa,2021.1.4,60.56491318596255,
sounds/gauche.ogg,0.7,,3,0,3,0,0,4,4,7,,,,,496.07442158004267,495.3870081999921,,,,001,2021_May_03_1429,list_pa,2021.1.4,60.56491318596255,
sounds/droite.ogg,0.7,,3,0,3,0,0,5,5,40,,,,,497.57348378000313,496.888548500021,,,,001,2021_May_03_1429,list_pa,2021.1.4,60.56491318596255,
sounds/gauche.ogg,0.7,,3,0,3,0,0,6,6,13,,,,,499.07449167999437,498.3886310000089,,,,001,2021_May_03_1429,list_pa,2021.1.4,60.56491318596255,
sounds/droite.ogg,0.7,,3,0,3,0,0,7,7,32,,,,,500.5750930800335,499.8890779000358,,,,001,2021_May_03_1429,list_pa,2021.1.4,60.56491318596255,
sounds/droite.ogg,0.7,,3,0,3,0,0,8,8,29,,,,,502.07463168001266,501.3899587999913,,,,001,2021_May_03_1429,list_pa,2021.1.4,60.56491318596255,
sounds/droite.ogg,0.7,,3,0,3,0,0,9,9,45,,,,,503.5755252800067,None,,,,001,2021_May_03_1429,list_pa,2021.1.4,60.56491318596255,
sounds/gauche.ogg,0.7,,3,0,3,0,0,10,10,24,,,,,505.07512018000705,504.3900093000266,,,,001,2021_May_03_1429,list_pa,2021.1.4,60.56491318596255,
sounds/gauche.ogg,0.7,,3,0,3,0,0,11,11,6,,,,,506.57572578002,505.8904024999938,,,,001,2021_May_03_1429,list_pa,2021.1.4,60.56491318596255,
sounds/gauche.ogg,0.7,,3,0,3,0,0,12,12,1,,,,,508.0757419800269,507.39092340000207,,,,001,2021_May_03_1429,list_pa,2021.1.4,60.56491318596255,
sounds/gauche.ogg,0.7,,3,0,3,0,0,13,13,12,,,,,509.5764146800269,508.89092710003024,,,,001,2021_May_03_1429,list_pa,2021.1.4,60.56491318596255,
sounds/droite.ogg,0.7,,3,0,3,0,0,14,14,37,,,,,511.0940013800049,None,,,,001,2021_May_03_1429,list_pa,2021.1.4,60.56491318596255,
sounds/gauche.ogg,0.7,,3,0,3,0,0,15,15,19,,,,,512.593681780016,511.90833420003764,,,,001,2021_May_03_1429,list_pa,2021.1.4,60.56491318596255,
sounds/gauche.ogg,0.7,,3,0,3,0,0,16,16,5,,,,,514.0940715800156,513.4073282000027,,,,001,2021_May_03_1429,list_pa,2021.1.4,60.56491318596255,
sounds/droite.ogg,0.7,,3,0,3,0,0,17,17,33,,,,,515.5942295799963,514.9088211000198,,,,001,2021_May_03_1429,list_pa,2021.1.4,60.56491318596255,
sounds/gauche.ogg,0.7,,3,0,3,0,0,18,18,0,,,,,517.0949930799892,516.4093012000085,,,,001,2021_May_03_1429,list_pa,2021.1.4,60.56491318596255,
sounds/droite.ogg,0.7,,3,0,3,0,0,19,19,27,,,,,518.5953290799865,None,,,,001,2021_May_03_1429,list_pa,2021.1.4,60.56491318596255,
sounds/gauche.ogg,0.7,,3,0,3,0,0,20,20,9,,,,,520.0953038800275,519.4092442000401,,,,001,2021_May_03_1429,list_pa,2021.1.4,60.56491318596255,
sounds/gauche.ogg,0.7,,3,0,3,0,0,21,21,20,,,,,521.5953270800295,520.9103808000218,,,,001,2021_May_03_1429,list_pa,2021.1.4,60.56491318596255,
sounds/droite.ogg,0.7,,3,0,3,0,0,22,22,35,,,,,523.095774880005,522.4105015000096,,,,001,2021_May_03_1429,list_pa,2021.1.4,60.56491318596255,
sounds/droite.ogg,0.7,,3,0,3,0,0,23,23,39,,,,,524.5958350799978,523.91126730002,,,,001,2021_May_03_1429,list_pa,2021.1.4,60.56491318596255,
sounds/droite.ogg,0.7,,3,0,3,0,0,24,24,38,,,,,526.0960189800011,525.4111924000317,,,,001,2021_May_03_1429,list_pa,2021.1.4,60.56491318596255,
sounds/droite.ogg,0.7,,3,0,3,0,0,25,25,26,,,,,527.5962923799874,526.9114542999887,,,,001,2021_May_03_1429,list_pa,2021.1.4,60.56491318596255,
sounds/gauche.ogg,0.7,,3,0,3,0,0,26,26,2,,,,,529.0964494800195,528.4124957000022,,,,001,2021_May_03_1429,list_pa,2021.1.4,60.56491318596255,
sounds/gauche.ogg,0.7,,3,0,3,0,0,27,27,14,,,,,530.5969319800264,529.912398800021,,,,001,2021_May_03_1429,list_pa,2021.1.4,60.56491318596255,
sounds/droite.ogg,0.7,,3,0,3,0,0,28,28,34,,,,,532.0970930800307,531.412705100025,,,,001,2021_May_03_1429,list_pa,2021.1.4,60.56491318596255,
sounds/droite.ogg,0.7,,3,0,3,0,0,29,29,44,,,,,533.5978502800339,532.9123097999836,,,,001,2021_May_03_1429,list_pa,2021.1.4,60.56491318596255,
sounds/gauche.ogg,0.7,,3,0,3,0,0,30,30,18,,,,,535.0975047800224,None,,,,001,2021_May_03_1429,list_pa,2021.1.4,60.56491318596255,
sounds/droite.ogg,0.7,,3,0,3,0,0,31,31,49,,,,,536.5981990800123,535.9133788000327,,,,001,2021_May_03_1429,list_pa,2021.1.4,60.56491318596255,
sounds/droite.ogg,0.7,,3,0,3,0,0,32,32,41,,,,,538.0986749800271,537.4139711000025,,,,001,2021_May_03_1429,list_pa,2021.1.4,60.56491318596255,
sounds/gauche.ogg,0.7,,3,0,3,0,0,33,33,11,,,,,539.5990469800075,None,,,,001,2021_May_03_1429,list_pa,2021.1.4,60.56491318596255,
sounds/gauche.ogg,0.7,,3,0,3,0,0,34,34,4,,,,,541.099040180014,540.4142541000037,,,,001,2021_May_03_1429,list_pa,2021.1.4,60.56491318596255,
sounds/droite.ogg,0.7,,3,0,3,0,0,35,35,46,,,,,542.5981951800408,541.9146007000236,,,,001,2021_May_03_1429,list_pa,2021.1.4,60.56491318596255,
sounds/gauche.ogg,0.7,,3,0,3,0,0,36,36,22,,,,,544.1000047800247,543.4148343999987,,,,001,2021_May_03_1429,list_pa,2021.1.4,60.56491318596255,
sounds/gauche.ogg,0.7,,3,0,3,0,0,37,37,23,,,,,545.6003475800156,544.9150105000008,,,,001,2021_May_03_1429,list_pa,2021.1.4,60.56491318596255,
sounds/droite.ogg,0.7,,3,0,3,0,0,38,38,42,,,,,547.1009783799876,546.4160435000085,,,,001,2021_May_03_1429,list_pa,2021.1.4,60.56491318596255,
sounds/droite.ogg,0.7,,3,0,3,0,0,39,39,43,,,,,548.6014070799923,547.9157905000029,,,,001,2021_May_03_1429,list_pa,2021.1.4,60.56491318596255,
sounds/droite.ogg,0.7,,3,0,3,0,0,40,40,28,,,,,550.1010999800404,549.4159531000187,,,,001,2021_May_03_1429,list_pa,2021.1.4,60.56491318596255,
sounds/droite.ogg,0.7,,3,0,3,0,0,41,41,36,,,,,551.6015891800402,None,,,,001,2021_May_03_1429,list_pa,2021.1.4,60.56491318596255,
sounds/gauche.ogg,0.7,,3,0,3,0,0,42,42,3,,,,,553.1023488800041,552.4172850000323,,,,001,2021_May_03_1429,list_pa,2021.1.4,60.56491318596255,
sounds/droite.ogg,0.7,,3,0,3,0,0,43,43,25,,,,,554.602212980017,553.9173204000108,,,,001,2021_May_03_1429,list_pa,2021.1.4,60.56491318596255,
sounds/gauche.ogg,0.7,,3,0,3,0,0,44,44,8,,,,,556.0832844800083,None,,,,001,2021_May_03_1429,list_pa,2021.1.4,60.56491318596255,
sounds/droite.ogg,0.7,,3,0,3,0,0,45,45,30,,,,,557.5862761800294,556.9007530999952,,,,001,2021_May_03_1429,list_pa,2021.1.4,60.56491318596255,
sounds/gauche.ogg,0.7,,3,0,3,0,0,46,46,15,,,,,559.0862621800392,None,,,,001,2021_May_03_1429,list_pa,2021.1.4,60.56491318596255,
sounds/gauche.ogg,0.7,,3,0,3,0,0,47,47,21,,,,,560.5864702799939,559.9016363000264,,,,001,2021_May_03_1429,list_pa,2021.1.4,60.56491318596255,
sounds/gauche.ogg,0.7,,3,0,3,0,0,48,48,10,,,,,562.0865210800315,561.4018357000314,,,,001,2021_May_03_1429,list_pa,2021.1.4,60.56491318596255,
sounds/droite.ogg,0.7,,3,0,3,0,0,49,49,31,,,,,563.5869586799876,562.9021608000039,,,,001,2021_May_03_1429,list_pa,2021.1.4,60.56491318596255,
,,30,3,0,3,0,,,,,0,0,0,0,,,564.4180960000376,None,,001,2021_May_03_1429,list_pa,2021.1.4,60.56491318596255,
,,29,3,0,3,0,,,,,0,1,1,1,,,565.4190466,None,,001,2021_May_03_1429,list_pa,2021.1.4,60.56491318596255,
,,28,3,0,3,0,,,,,0,2,2,2,,,566.4195954999886,None,,001,2021_May_03_1429,list_pa,2021.1.4,60.56491318596255,
,,27,3,0,3,0,,,,,0,3,3,3,,,567.4194109000382,None,,001,2021_May_03_1429,list_pa,2021.1.4,60.56491318596255,
,,26,3,0,3,0,,,,,0,4,4,4,,,568.4196183999884,None,,001,2021_May_03_1429,list_pa,2021.1.4,60.56491318596255,
,,25,3,0,3,0,,,,,0,5,5,5,,,569.4203406000161,None,,001,2021_May_03_1429,list_pa,2021.1.4,60.56491318596255,
,,24,3,0,3,0,,,,,0,6,6,6,,,570.4202653000248,None,,001,2021_May_03_1429,list_pa,2021.1.4,60.56491318596255,
,,23,3,0,3,0,,,,,0,7,7,7,,,571.4205572000355,None,,001,2021_May_03_1429,list_pa,2021.1.4,60.56491318596255,
,,22,3,0,3,0,,,,,0,8,8,8,,,572.4208527000155,None,,001,2021_May_03_1429,list_pa,2021.1.4,60.56491318596255,
,,21,3,0,3,0,,,,,0,9,9,9,,,573.4209473000374,None,,001,2021_May_03_1429,list_pa,2021.1.4,60.56491318596255,
,,20,3,0,3,0,,,,,0,10,10,10,,,574.4210930000409,None,,001,2021_May_03_1429,list_pa,2021.1.4,60.56491318596255,
,,19,3,0,3,0,,,,,0,11,11,11,,,575.421456400014,None,,001,2021_May_03_1429,list_pa,2021.1.4,60.56491318596255,
,,18,3,0,3,0,,,,,0,12,12,12,,,576.4214894000324,None,,001,2021_May_03_1429,list_pa,2021.1.4,60.56491318596255,
,,17,3,0,3,0,,,,,0,13,13,13,,,577.4218884999864,None,,001,2021_May_03_1429,list_pa,2021.1.4,60.56491318596255,
,,16,3,0,3,0,,,,,0,14,14,14,,,578.4058270000387,None,,001,2021_May_03_1429,list_pa,2021.1.4,60.56491318596255,
,,15,3,0,3,0,,,,,0,15,15,15,,,579.4063932999852,None,,001,2021_May_03_1429,list_pa,2021.1.4,60.56491318596255,
,,14,3,0,3,0,,,,,0,16,16,16,,,580.422260500025,None,,001,2021_May_03_1429,list_pa,2021.1.4,60.56491318596255,
,,13,3,0,3,0,,,,,0,17,17,17,,,581.4226819000323,None,,001,2021_May_03_1429,list_pa,2021.1.4,60.56491318596255,
,,12,3,0,3,0,,,,,0,18,18,18,,,582.4060635000351,None,,001,2021_May_03_1429,list_pa,2021.1.4,60.56491318596255,
,,11,3,0,3,0,,,,,0,19,19,19,,,583.4066986000398,None,,001,2021_May_03_1429,list_pa,2021.1.4,60.56491318596255,
,,10,3,0,3,0,,,,,0,20,20,20,,,584.4073638999835,None,,001,2021_May_03_1429,list_pa,2021.1.4,60.56491318596255,
,,9,3,0,3,0,,,,,0,21,21,21,,,585.409083000035,None,,001,2021_May_03_1429,list_pa,2021.1.4,60.56491318596255,
,,8,3,0,3,0,,,,,0,22,22,22,,,586.4075314000365,None,,001,2021_May_03_1429,list_pa,2021.1.4,60.56491318596255,
,,7,3,0,3,0,,,,,0,23,23,23,,,587.4070849000127,None,,001,2021_May_03_1429,list_pa,2021.1.4,60.56491318596255,
,,6,3,0,3,0,,,,,0,24,24,24,,,588.4089018999948,None,,001,2021_May_03_1429,list_pa,2021.1.4,60.56491318596255,
,,5,3,0,3,0,,,,,0,25,25,25,,,589.3914413999883,None,,001,2021_May_03_1429,list_pa,2021.1.4,60.56491318596255,
,,4,3,0,3,0,,,,,0,26,26,26,,,590.4076942999964,None,,001,2021_May_03_1429,list_pa,2021.1.4,60.56491318596255,
,,3,3,0,3,0,,,,,0,27,27,27,,,591.407524499984,None,,001,2021_May_03_1429,list_pa,2021.1.4,60.56491318596255,
,,2,3,0,3,0,,,,,0,28,28,28,,,592.4080267000245,None,,001,2021_May_03_1429,list_pa,2021.1.4,60.56491318596255,
,,1,3,0,3,0,,,,,0,29,29,29,,,593.4081171000144,None,,001,2021_May_03_1429,list_pa,2021.1.4,60.56491318596255,
,,0,3,0,3,0,,,,,0,30,30,30,,,594.4083287999965,None,,001,2021_May_03_1429,list_pa,2021.1.4,60.56491318596255,
,,,3,0,3,0,,,,,,,,,,,,,,001,2021_May_03_1429,list_pa,2021.1.4,60.56491318596255,
sounds/gauche.ogg,0.7,,4,0,4,0,0,0,0,19,,,,,596.1103374800063,None,,,,001,2021_May_03_1429,list_pa,2021.1.4,60.56491318596255,
sounds/gauche.ogg,0.7,,4,0,4,0,0,1,1,14,,,,,597.6106215800158,596.9265437999857,,,,001,2021_May_03_1429,list_pa,2021.1.4,60.56491318596255,
sounds/droite.ogg,0.7,,4,0,4,0,0,2,2,41,,,,,599.1114816799876,598.4259780999855,,,,001,2021_May_03_1429,list_pa,2021.1.4,60.56491318596255,
sounds/droite.ogg,0.7,,4,0,4,0,0,3,3,34,,,,,600.6114214799949,None,,,,001,2021_May_03_1429,list_pa,2021.1.4,60.56491318596255,
sounds/droite.ogg,0.7,,4,0,4,0,0,4,4,39,,,,,602.1116596800042,601.4267461000127,,,,001,2021_May_03_1429,list_pa,2021.1.4,60.56491318596255,
sounds/droite.ogg,0.7,,4,0,4,0,0,5,5,36,,,,,603.6119981800206,602.9275029000128,,,,001,2021_May_03_1429,list_pa,2021.1.4,60.56491318596255,
sounds/gauche.ogg,0.7,,4,0,4,0,0,6,6,1,,,,,605.1124564800178,604.4264123000321,,,,001,2021_May_03_1429,list_pa,2021.1.4,60.56491318596255,
sounds/gauche.ogg,0.7,,4,0,4,0,0,7,7,15,,,,,606.6127902799984,605.9279742999934,,,,001,2021_May_03_1429,list_pa,2021.1.4,60.56491318596255,
sounds/droite.ogg,0.7,,4,0,4,0,0,8,8,42,,,,,608.1128815799951,607.4278137999936,,,,001,2021_May_03_1429,list_pa,2021.1.4,60.56491318596255,
sounds/droite.ogg,0.7,,4,0,4,0,0,9,9,49,,,,,609.6134391799918,608.928181299998,,,,001,2021_May_03_1429,list_pa,2021.1.4,60.56491318596255,
sounds/droite.ogg,0.7,,4,0,4,0,0,10,10,30,,,,,611.1141035799868,610.428583800036,,,,001,2021_May_03_1429,list_pa,2021.1.4,60.56491318596255,
sounds/gauche.ogg,0.7,,4,0,4,0,0,11,11,23,,,,,612.6134728800156,611.9283805000014,,,,001,2021_May_03_1429,list_pa,2021.1.4,60.56491318596255,
sounds/gauche.ogg,0.7,,4,0,4,0,0,12,12,4,,,,,614.1146865800023,613.4287499000202,,,,001,2021_May_03_1429,list_pa,2021.1.4,60.56491318596255,
sounds/droite.ogg,0.7,,4,0,4,0,0,13,13,40,,,,,615.6141157800215,614.9289903999888,,,,001,2021_May_03_1429,list_pa,2021.1.4,60.56491318596255,
sounds/droite.ogg,0.7,,4,0,4,0,0,14,14,26,,,,,617.112965779996,616.4296719999984,,,,001,2021_May_03_1429,list_pa,2021.1.4,60.56491318596255,
sounds/droite.ogg,0.7,,4,0,4,0,0,15,15,44,,,,,618.6152345800423,None,,,,001,2021_May_03_1429,list_pa,2021.1.4,60.56491318596255,
sounds/gauche.ogg,0.7,,4,0,4,0,0,16,16,9,,,,,620.1146407800028,619.4303450000007,,,,001,2021_May_03_1429,list_pa,2021.1.4,60.56491318596255,
sounds/droite.ogg,0.7,,4,0,4,0,0,17,17,33,,,,,621.6158266800106,620.9311987000401,,,,001,2021_May_03_1429,list_pa,2021.1.4,60.56491318596255,
sounds/gauche.ogg,0.7,,4,0,4,0,0,18,18,22,,,,,623.1161722800229,622.4306937000365,,,,001,2021_May_03_1429,list_pa,2021.1.4,60.56491318596255,
sounds/gauche.ogg,0.7,,4,0,4,0,0,19,19,6,,,,,624.6159857799997,623.9311774999951,,,,001,2021_May_03_1429,list_pa,2021.1.4,60.56491318596255,
sounds/gauche.ogg,0.7,,4,0,4,0,0,20,20,12,,,,,626.1162628800142,625.4314275000361,,,,001,2021_May_03_1429,list_pa,2021.1.4,60.56491318596255,
sounds/gauche.ogg,0.7,,4,0,4,0,0,21,21,20,,,,,627.6163791800267,626.9306796999881,,,,001,2021_May_03_1429,list_pa,2021.1.4,60.56491318596255,
sounds/droite.ogg,0.7,,4,0,4,0,0,22,22,46,,,,,629.1167618800304,628.4335852999939,,,,001,2021_May_03_1429,list_pa,2021.1.4,60.56491318596255,
sounds/gauche.ogg,0.7,,4,0,4,0,0,23,23,5,,,,,630.616710179986,629.9313708000118,,,,001,2021_May_03_1429,list_pa,2021.1.4,60.56491318596255,
sounds/gauche.ogg,0.7,,4,0,4,0,0,24,24,10,,,,,632.117089880025,631.4328396000201,,,,001,2021_May_03_1429,list_pa,2021.1.4,60.56491318596255,
sounds/gauche.ogg,0.7,,4,0,4,0,0,25,25,3,,,,,633.6180003800313,632.9333211000194,,,,001,2021_May_03_1429,list_pa,2021.1.4,60.56491318596255,
sounds/droite.ogg,0.7,,4,0,4,0,0,26,26,32,,,,,635.1176222800044,None,,,,001,2021_May_03_1429,list_pa,2021.1.4,60.56491318596255,
sounds/droite.ogg,0.7,,4,0,4,0,0,27,27,37,,,,,636.6186463800026,635.9336298999842,,,,001,2021_May_03_1429,list_pa,2021.1.4,60.56491318596255,
sounds/gauche.ogg,0.7,,4,0,4,0,0,28,28,21,,,,,638.1189990800107,637.4337286000373,,,,001,2021_May_03_1429,list_pa,2021.1.4,60.56491318596255,
sounds/gauche.ogg,0.7,,4,0,4,0,0,29,29,17,,,,,639.6190341799869,None,,,,001,2021_May_03_1429,list_pa,2021.1.4,60.56491318596255,
sounds/droite.ogg,0.7,,4,0,4,0,0,30,30,43,,,,,641.1193266800022,640.4345638999948,,,,001,2021_May_03_1429,list_pa,2021.1.4,60.56491318596255,
sounds/gauche.ogg,0.7,,4,0,4,0,0,31,31,2,,,,,642.6199606799986,641.9347100000014,,,,001,2021_May_03_1429,list_pa,2021.1.4,60.56491318596255,
sounds/droite.ogg,0.7,,4,0,4,0,0,32,32,45,,,,,644.1199152800021,643.4350742000388,,,,001,2021_May_03_1429,list_pa,2021.1.4,60.56491318596255,
sounds/droite.ogg,0.7,,4,0,4,0,0,33,33,25,,,,,645.6205780800432,644.9351167000132,,,,001,2021_May_03_1429,list_pa,2021.1.4,60.56491318596255,
sounds/droite.ogg,0.7,,4,0,4,0,0,34,34,48,,,,,647.1211440799874,646.4357784999884,,,,001,2021_May_03_1429,list_pa,2021.1.4,60.56491318596255,
sounds/droite.ogg,0.7,,4,0,4,0,0,35,35,47,,,,,648.6210751799866,647.9348270000191,,,,001,2021_May_03_1429,list_pa,2021.1.4,60.56491318596255,
sounds/droite.ogg,0.7,,4,0,4,0,0,36,36,31,,,,,650.1220818800269,649.4372096000006,,,,001,2021_May_03_1429,list_pa,2021.1.4,60.56491318596255,
sounds/droite.ogg,0.7,,4,0,4,0,0,37,37,38,,,,,651.6218728800071,None,,,,001,2021_May_03_1429,list_pa,2021.1.4,60.56491318596255,
sounds/gauche.ogg,0.7,,4,0,4,0,0,38,38,24,,,,,653.1219148800359,652.437241800013,,,,001,2021_May_03_1429,list_pa,2021.1.4,60.56491318596255,
sounds/gauche.ogg,0.7,,4,0,4,0,0,39,39,18,,,,,654.6220070800395,653.937470600009,,,,001,2021_May_03_1429,list_pa,2021.1.4,60.56491318596255,
sounds/droite.ogg,0.7,,4,0,4,0,0,40,40,29,,,,,656.1223934800131,None,,,,001,2021_May_03_1429,list_pa,2021.1.4,60.56491318596255,
sounds/gauche.ogg,0.7,,4,0,4,0,0,41,41,16,,,,,657.6231017799931,None,,,,001,2021_May_03_1429,list_pa,2021.1.4,60.56491318596255,
sounds/gauche.ogg,0.7,,4,0,4,0,0,42,42,13,,,,,659.1231210800237,658.4379791000392,,,,001,2021_May_03_1429,list_pa,2021.1.4,60.56491318596255,
sounds/gauche.ogg,0.7,,4,0,4,0,0,43,43,11,,,,,660.6240639799856,659.9381446000189,,,,001,2021_May_03_1429,list_pa,2021.1.4,60.56491318596255,
sounds/droite.ogg,0.7,,4,0,4,0,0,44,44,27,,,,,662.1241288800142,661.4383180000004,,,,001,2021_May_03_1429,list_pa,2021.1.4,60.56491318596255,
sounds/gauche.ogg,0.7,,4,0,4,0,0,45,45,8,,,,,663.6243303800351,662.9386697000009,,,,001,2021_May_03_1429,list_pa,2021.1.4,60.56491318596255,
sounds/gauche.ogg,0.7,,4,0,4,0,0,46,46,0,,,,,665.124558780028,664.4392270999961,,,,001,2021_May_03_1429,list_pa,2021.1.4,60.56491318596255,
sounds/droite.ogg,0.7,,4,0,4,0,0,47,47,28,,,,,666.6254219800234,665.9396606000373,,,,001,2021_May_03_1429,list_pa,2021.1.4,60.56491318596255,
sounds/droite.ogg,0.7,,4,0,4,0,0,48,48,35,,,,,668.1248475800152,667.4397675000364,,,,001,2021_May_03_1429,list_pa,2021.1.4,60.56491318596255,
sounds/gauche.ogg,0.7,,4,0,4,0,0,49,49,7,,,,,669.6252209800062,668.940303499985,,,,001,2021_May_03_1429,list_pa,2021.1.4,60.56491318596255,
,,30,4,0,4,0,,,,,0,0,0,0,,,670.4561826999998,None,,001,2021_May_03_1429,list_pa,2021.1.4,60.56491318596255,
,,29,4,0,4,0,,,,,0,1,1,1,,,671.4576323000365,None,,001,2021_May_03_1429,list_pa,2021.1.4,60.56491318596255,
,,28,4,0,4,0,,,,,0,2,2,2,,,672.4575062000076,None,,001,2021_May_03_1429,list_pa,2021.1.4,60.56491318596255,
,,27,4,0,4,0,,,,,0,3,3,3,,,673.4580764999846,None,,001,2021_May_03_1429,list_pa,2021.1.4,60.56491318596255,
,,26,4,0,4,0,,,,,0,4,4,4,,,674.4579842000385,None,,001,2021_May_03_1429,list_pa,2021.1.4,60.56491318596255,
,,25,4,0,4,0,,,,,0,5,5,5,,,675.4580847999896,None,,001,2021_May_03_1429,list_pa,2021.1.4,60.56491318596255,
,,24,4,0,4,0,,,,,0,6,6,6,,,676.4584943000227,None,,001,2021_May_03_1429,list_pa,2021.1.4,60.56491318596255,
,,23,4,0,4,0,,,,,0,7,7,7,,,677.4583394000074,None,,001,2021_May_03_1429,list_pa,2021.1.4,60.56491318596255,
,,22,4,0,4,0,,,,,0,8,8,8,,,678.4585951000336,None,,001,2021_May_03_1429,list_pa,2021.1.4,60.56491318596255,
,,21,4,0,4,0,,,,,0,9,9,9,,,679.4590861999895,None,,001,2021_May_03_1429,list_pa,2021.1.4,60.56491318596255,
,,20,4,0,4,0,,,,,0,10,10,10,,,680.4594529999886,None,,001,2021_May_03_1429,list_pa,2021.1.4,60.56491318596255,
,,19,4,0,4,0,,,,,0,11,11,11,,,681.4595792000182,None,,001,2021_May_03_1429,list_pa,2021.1.4,60.56491318596255,
,,18,4,0,4,0,,,,,0,12,12,12,,,682.459573500033,None,,001,2021_May_03_1429,list_pa,2021.1.4,60.56491318596255,
,,17,4,0,4,0,,,,,0,13,13,13,,,683.4598529000068,None,,001,2021_May_03_1429,list_pa,2021.1.4,60.56491318596255,
,,16,4,0,4,0,,,,,0,14,14,14,,,684.4599023000337,None,,001,2021_May_03_1429,list_pa,2021.1.4,60.56491318596255,
,,15,4,0,4,0,,,,,0,15,15,15,,,685.4602981000207,None,,001,2021_May_03_1429,list_pa,2021.1.4,60.56491318596255,
,,14,4,0,4,0,,,,,0,16,16,16,,,686.4604760000366,None,,001,2021_May_03_1429,list_pa,2021.1.4,60.56491318596255,
,,13,4,0,4,0,,,,,0,17,17,17,,,687.4605659000226,None,,001,2021_May_03_1429,list_pa,2021.1.4,60.56491318596255,
,,12,4,0,4,0,,,,,0,18,18,18,,,688.4611640000367,None,,001,2021_May_03_1429,list_pa,2021.1.4,60.56491318596255,
,,11,4,0,4,0,,,,,0,19,19,19,,,689.4611587999971,None,,001,2021_May_03_1429,list_pa,2021.1.4,60.56491318596255,
,,10,4,0,4,0,,,,,0,20,20,20,,,690.4451237000176,None,,001,2021_May_03_1429,list_pa,2021.1.4,60.56491318596255,
,,9,4,0,4,0,,,,,0,21,21,21,,,691.4452527000103,None,,001,2021_May_03_1429,list_pa,2021.1.4,60.56491318596255,
,,8,4,0,4,0,,,,,0,22,22,22,,,692.4454327999847,None,,001,2021_May_03_1429,list_pa,2021.1.4,60.56491318596255,
,,7,4,0,4,0,,,,,0,23,23,23,,,693.4452848000219,None,,001,2021_May_03_1429,list_pa,2021.1.4,60.56491318596255,
,,6,4,0,4,0,,,,,0,24,24,24,,,694.4462877000333,None,,001,2021_May_03_1429,list_pa,2021.1.4,60.56491318596255,
,,5,4,0,4,0,,,,,0,25,25,25,,,695.4457106000045,None,,001,2021_May_03_1429,list_pa,2021.1.4,60.56491318596255,
,,4,4,0,4,0,,,,,0,26,26,26,,,696.4460131000378,None,,001,2021_May_03_1429,list_pa,2021.1.4,60.56491318596255,
,,3,4,0,4,0,,,,,0,27,27,27,,,697.4465151000186,None,,001,2021_May_03_1429,list_pa,2021.1.4,60.56491318596255,
,,2,4,0,4,0,,,,,0,28,28,28,,,698.4463234000141,None,,001,2021_May_03_1429,list_pa,2021.1.4,60.56491318596255,
,,1,4,0,4,0,,,,,0,29,29,29,,,699.4466818000074,None,,001,2021_May_03_1429,list_pa,2021.1.4,60.56491318596255,
,,0,4,0,4,0,,,,,0,30,30,30,,,700.4472675999859,None,,001,2021_May_03_1429,list_pa,2021.1.4,60.56491318596255,
,,,4,0,4,0,,,,,,,,,,,,,,001,2021_May_03_1429,list_pa,2021.1.4,60.56491318596255,
