word_stimuli,isi,trial_loop.thisRepN,trial_loop.thisTrialN,trial_loop.thisN,trial_loop.thisIndex,sound_exposure.started,sound_exposure.stopped,participant,session,date,expName,psychopyVersion,frameRate,
sounds/gauche.ogg,0.7,0,0,0,6,9.195503339997959,None,,001,2021_Apr_30_0947,list_pa,2021.1.4,60.114469981085534,
sounds/gauche.ogg,0.7,0,1,1,19,10.696165540005314,10.01052979999804,,001,2021_Apr_30_0947,list_pa,2021.1.4,60.114469981085534,
sounds/droite.ogg,0.7,0,2,2,43,12.19694733999204,None,,001,2021_Apr_30_0947,list_pa,2021.1.4,60.114469981085534,
sounds/droite.ogg,0.7,0,3,3,49,13.69500973999384,None,,001,2021_Apr_30_0947,list_pa,2021.1.4,60.114469981085534,
sounds/droite.ogg,0.7,0,4,4,31,15.197775339981309,None,,001,2021_Apr_30_0947,list_pa,2021.1.4,60.114469981085534,
sounds/droite.ogg,0.7,0,5,5,33,16.69740173998871,16.011286399996607,,001,2021_Apr_30_0947,list_pa,2021.1.4,60.114469981085534,
sounds/gauche.ogg,0.7,0,6,6,13,18.19769893998164,None,,001,2021_Apr_30_0947,list_pa,2021.1.4,60.114469981085534,
sounds/gauche.ogg,0.7,0,7,7,10,19.698298340005568,19.01196489998256,,001,2021_Apr_30_0947,list_pa,2021.1.4,60.114469981085534,
sounds/droite.ogg,0.7,0,8,8,42,21.198328340001172,20.512212900008308,,001,2021_Apr_30_0947,list_pa,2021.1.4,60.114469981085534,
sounds/gauche.ogg,0.7,0,9,9,0,22.69906203999999,22.012379699997837,,001,2021_Apr_30_0947,list_pa,2021.1.4,60.114469981085534,
sounds/droite.ogg,0.7,0,10,10,30,24.198940939980094,23.512995400000364,,001,2021_Apr_30_0947,list_pa,2021.1.4,60.114469981085534,
sounds/gauche.ogg,0.7,0,11,11,20,25.699193739984185,25.01325829999405,,001,2021_Apr_30_0947,list_pa,2021.1.4,60.114469981085534,
sounds/gauche.ogg,0.7,0,12,12,16,27.19929853999638,26.513655799994012,,001,2021_Apr_30_0947,list_pa,2021.1.4,60.114469981085534,
sounds/gauche.ogg,0.7,0,13,13,22,28.699929639999755,28.01381350000156,,001,2021_Apr_30_0947,list_pa,2021.1.4,60.114469981085534,
sounds/gauche.ogg,0.7,0,14,14,23,30.200651039992227,29.514209099987056,,001,2021_Apr_30_0947,list_pa,2021.1.4,60.114469981085534,
sounds/gauche.ogg,0.7,0,15,15,3,31.70026133999345,30.997864200006006,,001,2021_Apr_30_0947,list_pa,2021.1.4,60.114469981085534,
sounds/droite.ogg,0.7,0,16,16,45,33.19804333998472,32.514854699984426,,001,2021_Apr_30_0947,list_pa,2021.1.4,60.114469981085534,
sounds/gauche.ogg,0.7,0,17,17,15,34.700704439991384,None,,001,2021_Apr_30_0947,list_pa,2021.1.4,60.114469981085534,
sounds/droite.ogg,0.7,0,18,18,46,36.20156773998751,35.51536540000234,,001,2021_Apr_30_0947,list_pa,2021.1.4,60.114469981085534,
sounds/gauche.ogg,0.7,0,19,19,1,37.701583639992165,37.01572239998495,,001,2021_Apr_30_0947,list_pa,2021.1.4,60.114469981085534,
sounds/droite.ogg,0.7,0,20,20,36,39.20155514000798,None,,001,2021_Apr_30_0947,list_pa,2021.1.4,60.114469981085534,
sounds/droite.ogg,0.7,0,21,21,37,40.70219334000721,40.01620409998577,,001,2021_Apr_30_0947,list_pa,2021.1.4,60.114469981085534,
sounds/gauche.ogg,0.7,0,22,22,2,42.20264754000236,41.516608100006124,,001,2021_Apr_30_0947,list_pa,2021.1.4,60.114469981085534,
sounds/droite.ogg,0.7,0,23,23,40,43.70258033998543,43.01688429998467,,001,2021_Apr_30_0947,list_pa,2021.1.4,60.114469981085534,
sounds/droite.ogg,0.7,0,24,24,26,45.20305823998642,44.51720549998572,,001,2021_Apr_30_0947,list_pa,2021.1.4,60.114469981085534,
sounds/gauche.ogg,0.7,0,25,25,14,46.70334053998231,46.01747719998821,,001,2021_Apr_30_0947,list_pa,2021.1.4,60.114469981085534,
sounds/gauche.ogg,0.7,0,26,26,12,48.20372534000198,47.517788299999665,,001,2021_Apr_30_0947,list_pa,2021.1.4,60.114469981085534,
sounds/gauche.ogg,0.7,0,27,27,5,49.70443403998506,49.017925399995875,,001,2021_Apr_30_0947,list_pa,2021.1.4,60.114469981085534,
sounds/gauche.ogg,0.7,0,28,28,18,51.20417463998892,None,,001,2021_Apr_30_0947,list_pa,2021.1.4,60.114469981085534,
sounds/gauche.ogg,0.7,0,29,29,9,52.704647140007,52.018894999986514,,001,2021_Apr_30_0947,list_pa,2021.1.4,60.114469981085534,
sounds/gauche.ogg,0.7,0,30,30,24,54.20521234000334,53.519096799980616,,001,2021_Apr_30_0947,list_pa,2021.1.4,60.114469981085534,
sounds/droite.ogg,0.7,0,31,31,44,55.70540813998086,None,,001,2021_Apr_30_0947,list_pa,2021.1.4,60.114469981085534,
sounds/droite.ogg,0.7,0,32,32,47,57.205478039989245,56.51975780000794,,001,2021_Apr_30_0947,list_pa,2021.1.4,60.114469981085534,
sounds/droite.ogg,0.7,0,33,33,29,58.7059508399805,58.0201628000068,,001,2021_Apr_30_0947,list_pa,2021.1.4,60.114469981085534,
sounds/gauche.ogg,0.7,0,34,34,11,60.20667823998956,59.520119399996474,,001,2021_Apr_30_0947,list_pa,2021.1.4,60.114469981085534,
sounds/gauche.ogg,0.7,0,35,35,7,61.70723513998091,61.020532299997285,,001,2021_Apr_30_0947,list_pa,2021.1.4,60.114469981085534,
sounds/droite.ogg,0.7,0,36,36,28,63.20740353998262,62.52075679998961,,001,2021_Apr_30_0947,list_pa,2021.1.4,60.114469981085534,
sounds/gauche.ogg,0.7,0,37,37,4,64.70808133999235,64.02117399999406,,001,2021_Apr_30_0947,list_pa,2021.1.4,60.114469981085534,
sounds/droite.ogg,0.7,0,38,38,48,66.2081065399805,65.52130269998452,,001,2021_Apr_30_0947,list_pa,2021.1.4,60.114469981085534,
sounds/gauche.ogg,0.7,0,39,39,17,67.70835603998857,67.02160229999572,,001,2021_Apr_30_0947,list_pa,2021.1.4,60.114469981085534,
sounds/droite.ogg,0.7,0,40,40,38,69.20840303999721,68.52185920000193,,001,2021_Apr_30_0947,list_pa,2021.1.4,60.114469981085534,
sounds/gauche.ogg,0.7,0,41,41,8,70.70854713998851,70.0223638000025,,001,2021_Apr_30_0947,list_pa,2021.1.4,60.114469981085534,
sounds/droite.ogg,0.7,0,42,42,39,72.2086470399925,71.52270949998638,,001,2021_Apr_30_0947,list_pa,2021.1.4,60.114469981085534,
sounds/droite.ogg,0.7,0,43,43,34,73.70919453999959,None,,001,2021_Apr_30_0947,list_pa,2021.1.4,60.114469981085534,
sounds/droite.ogg,0.7,0,44,44,32,75.20928023998276,74.52312840000377,,001,2021_Apr_30_0947,list_pa,2021.1.4,60.114469981085534,
sounds/droite.ogg,0.7,0,45,45,41,76.70928793998318,76.02364969998598,,001,2021_Apr_30_0947,list_pa,2021.1.4,60.114469981085534,
sounds/gauche.ogg,0.7,0,46,46,21,78.20991963999113,77.52387199999066,,001,2021_Apr_30_0947,list_pa,2021.1.4,60.114469981085534,
sounds/droite.ogg,0.7,0,47,47,35,79.71050083999289,79.02420479999273,,001,2021_Apr_30_0947,list_pa,2021.1.4,60.114469981085534,
sounds/droite.ogg,0.7,0,48,48,27,81.21021353998803,80.52464759998838,,001,2021_Apr_30_0947,list_pa,2021.1.4,60.114469981085534,
sounds/droite.ogg,0.7,0,49,49,25,82.71054663999239,82.02489259999129,,001,2021_Apr_30_0947,list_pa,2021.1.4,60.114469981085534,
