word_stimuli,isi,countdown,trials.thisRepN,trials.thisTrialN,trials.thisN,trials.thisIndex,trial_loop.thisRepN,trial_loop.thisTrialN,trial_loop.thisN,trial_loop.thisIndex,trials_2.thisRepN,trials_2.thisTrialN,trials_2.thisN,trials_2.thisIndex,sound_exposure.started,sound_exposure.stopped,text.started,text.stopped,participant,session,date,expName,psychopyVersion,frameRate,
sounds/droite.ogg,0.7,,0,0,0,0,0,0,0,41,,,,,65.93776770000113,None,,,,001,2021_May_05_1627,list_pa,2021.1.4,59.8292950475548,
sounds/gauche.ogg,0.7,,0,0,0,0,0,1,1,1,,,,,67.43869009998161,66.75437469998724,,,,001,2021_May_05_1627,list_pa,2021.1.4,59.8292950475548,
sounds/gauche.ogg,0.7,,0,0,0,0,0,2,2,13,,,,,68.93878419999965,None,,,,001,2021_May_05_1627,list_pa,2021.1.4,59.8292950475548,
sounds/droite.ogg,0.7,,0,0,0,0,0,3,3,45,,,,,70.43915639998158,69.75910269998712,,,,001,2021_May_05_1627,list_pa,2021.1.4,59.8292950475548,
sounds/gauche.ogg,0.7,,0,0,0,0,0,4,4,4,,,,,71.93934559999616,71.25686439999845,,,,001,2021_May_05_1627,list_pa,2021.1.4,59.8292950475548,
sounds/gauche.ogg,0.7,,0,0,0,0,0,5,5,0,,,,,73.43982040000265,72.75725169997895,,,,001,2021_May_05_1627,list_pa,2021.1.4,59.8292950475548,
sounds/gauche.ogg,0.7,,0,0,0,0,0,6,6,3,,,,,74.94029079997563,74.25792239999282,,,,001,2021_May_05_1627,list_pa,2021.1.4,59.8292950475548,
sounds/gauche.ogg,0.7,,0,0,0,0,0,7,7,10,,,,,76.44099429997732,75.75714410000364,,,,001,2021_May_05_1627,list_pa,2021.1.4,59.8292950475548,
sounds/gauche.ogg,0.7,,0,0,0,0,0,8,8,16,,,,,77.94109889998799,77.25787219998892,,,,001,2021_May_05_1627,list_pa,2021.1.4,59.8292950475548,
sounds/droite.ogg,0.7,,0,0,0,0,0,9,9,35,,,,,79.44135699997423,78.7588328999991,,,,001,2021_May_05_1627,list_pa,2021.1.4,59.8292950475548,
sounds/droite.ogg,0.7,,0,0,0,0,0,10,10,40,,,,,80.94214739999734,80.25855539998156,,,,001,2021_May_05_1627,list_pa,2021.1.4,59.8292950475548,
sounds/gauche.ogg,0.7,,0,0,0,0,0,11,11,18,,,,,82.44171139999526,81.7590240999998,,,,001,2021_May_05_1627,list_pa,2021.1.4,59.8292950475548,
sounds/droite.ogg,0.7,,0,0,0,0,0,12,12,34,,,,,83.94198249999317,83.25912329999846,,,,001,2021_May_05_1627,list_pa,2021.1.4,59.8292950475548,
sounds/gauche.ogg,0.7,,0,0,0,0,0,13,13,2,,,,,85.44242669999949,None,,,,001,2021_May_05_1627,list_pa,2021.1.4,59.8292950475548,
sounds/gauche.ogg,0.7,,0,0,0,0,0,14,14,11,,,,,86.94253569998546,86.25974680000218,,,,001,2021_May_05_1627,list_pa,2021.1.4,59.8292950475548,
sounds/gauche.ogg,0.7,,0,0,0,0,0,15,15,14,,,,,88.44302419997985,87.76043169997865,,,,001,2021_May_05_1627,list_pa,2021.1.4,59.8292950475548,
sounds/gauche.ogg,0.7,,0,0,0,0,0,16,16,7,,,,,89.94336159998784,89.25953129999107,,,,001,2021_May_05_1627,list_pa,2021.1.4,59.8292950475548,
sounds/droite.ogg,0.7,,0,0,0,0,0,17,17,30,,,,,91.44360169998254,90.75981629997841,,,,001,2021_May_05_1627,list_pa,2021.1.4,59.8292950475548,
sounds/gauche.ogg,0.7,,0,0,0,0,0,18,18,21,,,,,92.94394379999721,None,,,,001,2021_May_05_1627,list_pa,2021.1.4,59.8292950475548,
sounds/droite.ogg,0.7,,0,0,0,0,0,19,19,47,,,,,94.44514349999372,93.76065949999611,,,,001,2021_May_05_1627,list_pa,2021.1.4,59.8292950475548,
sounds/droite.ogg,0.7,,0,0,0,0,0,20,20,26,,,,,95.94460550000076,95.26151799998479,,,,001,2021_May_05_1627,list_pa,2021.1.4,59.8292950475548,
sounds/droite.ogg,0.7,,0,0,0,0,0,21,21,25,,,,,97.44496519997483,96.761417599977,,,,001,2021_May_05_1627,list_pa,2021.1.4,59.8292950475548,
sounds/droite.ogg,0.7,,0,0,0,0,0,22,22,28,,,,,98.94573119998677,98.26164119999157,,,,001,2021_May_05_1627,list_pa,2021.1.4,59.8292950475548,
sounds/gauche.ogg,0.7,,0,0,0,0,0,23,23,22,,,,,100.44595100000151,99.76222409997717,,,,001,2021_May_05_1627,list_pa,2021.1.4,59.8292950475548,
sounds/gauche.ogg,0.7,,0,0,0,0,0,24,24,19,,,,,101.94615119998343,101.26117909999448,,,,001,2021_May_05_1627,list_pa,2021.1.4,59.8292950475548,
sounds/gauche.ogg,0.7,,0,0,0,0,0,25,25,17,,,,,103.44659389997832,None,,,,001,2021_May_05_1627,list_pa,2021.1.4,59.8292950475548,
sounds/gauche.ogg,0.7,,0,0,0,0,0,26,26,5,,,,,104.94676709998748,104.26355849998072,,,,001,2021_May_05_1627,list_pa,2021.1.4,59.8292950475548,
sounds/gauche.ogg,0.7,,0,0,0,0,0,27,27,8,,,,,106.4466659000027,105.76317969997763,,,,001,2021_May_05_1627,list_pa,2021.1.4,59.8292950475548,
sounds/droite.ogg,0.7,,0,0,0,0,0,28,28,29,,,,,107.94703979999758,107.26374460000079,,,,001,2021_May_05_1627,list_pa,2021.1.4,59.8292950475548,
sounds/droite.ogg,0.7,,0,0,0,0,0,29,29,38,,,,,109.44735049997689,108.76380049998988,,,,001,2021_May_05_1627,list_pa,2021.1.4,59.8292950475548,
sounds/gauche.ogg,0.7,,0,0,0,0,0,30,30,6,,,,,110.94764959998429,110.26458529999945,,,,001,2021_May_05_1627,list_pa,2021.1.4,59.8292950475548,
sounds/gauche.ogg,0.7,,0,0,0,0,0,31,31,20,,,,,112.44779649999691,111.76479279997875,,,,001,2021_May_05_1627,list_pa,2021.1.4,59.8292950475548,
sounds/droite.ogg,0.7,,0,0,0,0,0,32,32,39,,,,,113.94849779998185,113.26383879999048,,,,001,2021_May_05_1627,list_pa,2021.1.4,59.8292950475548,
sounds/droite.ogg,0.7,,0,0,0,0,0,33,33,37,,,,,115.44820129999425,114.7652037999942,,,,001,2021_May_05_1627,list_pa,2021.1.4,59.8292950475548,
sounds/gauche.ogg,0.7,,0,0,0,0,0,34,34,24,,,,,116.94911590000265,116.26471049999236,,,,001,2021_May_05_1627,list_pa,2021.1.4,59.8292950475548,
sounds/droite.ogg,0.7,,0,0,0,0,0,35,35,48,,,,,118.44971999997506,117.76635689998511,,,,001,2021_May_05_1627,list_pa,2021.1.4,59.8292950475548,
sounds/droite.ogg,0.7,,0,0,0,0,0,36,36,43,,,,,119.94915859997855,None,,,,001,2021_May_05_1627,list_pa,2021.1.4,59.8292950475548,
sounds/droite.ogg,0.7,,0,0,0,0,0,37,37,32,,,,,121.44934979997925,120.76615359997959,,,,001,2021_May_05_1627,list_pa,2021.1.4,59.8292950475548,
sounds/droite.ogg,0.7,,0,0,0,0,0,38,38,33,,,,,122.95010970000294,122.26527909998549,,,,001,2021_May_05_1627,list_pa,2021.1.4,59.8292950475548,
sounds/gauche.ogg,0.7,,0,0,0,0,0,39,39,9,,,,,124.45045659999596,None,,,,001,2021_May_05_1627,list_pa,2021.1.4,59.8292950475548,
sounds/gauche.ogg,0.7,,0,0,0,0,0,40,40,15,,,,,125.95051799999783,125.26740509999217,,,,001,2021_May_05_1627,list_pa,2021.1.4,59.8292950475548,
sounds/droite.ogg,0.7,,0,0,0,0,0,41,41,27,,,,,127.4506939999992,126.76751219999278,,,,001,2021_May_05_1627,list_pa,2021.1.4,59.8292950475548,
sounds/droite.ogg,0.7,,0,0,0,0,0,42,42,44,,,,,128.95098139997572,128.26849289998063,,,,001,2021_May_05_1627,list_pa,2021.1.4,59.8292950475548,
sounds/droite.ogg,0.7,,0,0,0,0,0,43,43,36,,,,,130.45145579997916,129.76725720000104,,,,001,2021_May_05_1627,list_pa,2021.1.4,59.8292950475548,
sounds/droite.ogg,0.7,,0,0,0,0,0,44,44,31,,,,,131.95193889999064,131.26780959998723,,,,001,2021_May_05_1627,list_pa,2021.1.4,59.8292950475548,
sounds/gauche.ogg,0.7,,0,0,0,0,0,45,45,23,,,,,133.45278729998972,132.76778579998063,,,,001,2021_May_05_1627,list_pa,2021.1.4,59.8292950475548,
sounds/droite.ogg,0.7,,0,0,0,0,0,46,46,49,,,,,134.952507399983,134.26803989999462,,,,001,2021_May_05_1627,list_pa,2021.1.4,59.8292950475548,
sounds/droite.ogg,0.7,,0,0,0,0,0,47,47,42,,,,,136.4528858999838,135.76895030000014,,,,001,2021_May_05_1627,list_pa,2021.1.4,59.8292950475548,
sounds/gauche.ogg,0.7,,0,0,0,0,0,48,48,12,,,,,137.95324179998715,137.2692685999791,,,,001,2021_May_05_1627,list_pa,2021.1.4,59.8292950475548,
sounds/droite.ogg,0.7,,0,0,0,0,0,49,49,46,,,,,139.45334019997972,138.77056929998798,,,,001,2021_May_05_1627,list_pa,2021.1.4,59.8292950475548,
,,30,0,0,0,0,,,,,0,0,0,0,,,140.362226199999,None,,001,2021_May_05_1627,list_pa,2021.1.4,59.8292950475548,
,,29,0,0,0,0,,,,,0,1,1,1,,,141.28705079999054,None,,001,2021_May_05_1627,list_pa,2021.1.4,59.8292950475548,
,,28,0,0,0,0,,,,,0,2,2,2,,,142.2874041000032,None,,001,2021_May_05_1627,list_pa,2021.1.4,59.8292950475548,
,,27,0,0,0,0,,,,,0,3,3,3,,,143.2878989999881,None,,001,2021_May_05_1627,list_pa,2021.1.4,59.8292950475548,
,,26,0,0,0,0,,,,,0,4,4,4,,,144.287971999991,None,,001,2021_May_05_1627,list_pa,2021.1.4,59.8292950475548,
,,25,0,0,0,0,,,,,0,5,5,5,,,145.28848920000019,None,,001,2021_May_05_1627,list_pa,2021.1.4,59.8292950475548,
,,24,0,0,0,0,,,,,0,6,6,6,,,146.28917079998064,None,,001,2021_May_05_1627,list_pa,2021.1.4,59.8292950475548,
,,23,0,0,0,0,,,,,0,7,7,7,,,147.28980309999315,None,,001,2021_May_05_1627,list_pa,2021.1.4,59.8292950475548,
,,22,0,0,0,0,,,,,0,8,8,8,,,148.28877369998372,None,,001,2021_May_05_1627,list_pa,2021.1.4,59.8292950475548,
,,21,0,0,0,0,,,,,0,9,9,9,,,149.28910319998977,None,,001,2021_May_05_1627,list_pa,2021.1.4,59.8292950475548,
,,20,0,0,0,0,,,,,0,10,10,10,,,150.29094229999464,None,,001,2021_May_05_1627,list_pa,2021.1.4,59.8292950475548,
,,19,0,0,0,0,,,,,0,11,11,11,,,151.28911699997843,None,,001,2021_May_05_1627,list_pa,2021.1.4,59.8292950475548,
,,18,0,0,0,0,,,,,0,12,12,12,,,152.29026069998508,None,,001,2021_May_05_1627,list_pa,2021.1.4,59.8292950475548,
,,17,0,0,0,0,,,,,0,13,13,13,,,153.28975389999687,None,,001,2021_May_05_1627,list_pa,2021.1.4,59.8292950475548,
,,16,0,0,0,0,,,,,0,14,14,14,,,154.28957130000344,None,,001,2021_May_05_1627,list_pa,2021.1.4,59.8292950475548,
,,15,0,0,0,0,,,,,0,15,15,15,,,155.29137169997557,None,,001,2021_May_05_1627,list_pa,2021.1.4,59.8292950475548,
,,14,0,0,0,0,,,,,0,16,16,16,,,156.2901677999762,None,,001,2021_May_05_1627,list_pa,2021.1.4,59.8292950475548,
,,13,0,0,0,0,,,,,0,17,17,17,,,157.27379929999006,None,,001,2021_May_05_1627,list_pa,2021.1.4,59.8292950475548,
,,12,0,0,0,0,,,,,0,18,18,18,,,158.27298869998776,None,,001,2021_May_05_1627,list_pa,2021.1.4,59.8292950475548,
,,11,0,0,0,0,,,,,0,19,19,19,,,159.27292540000053,None,,001,2021_May_05_1627,list_pa,2021.1.4,59.8292950475548,
,,10,0,0,0,0,,,,,0,20,20,20,,,160.27464129999862,None,,001,2021_May_05_1627,list_pa,2021.1.4,59.8292950475548,
,,9,0,0,0,0,,,,,0,21,21,21,,,161.27386839999235,None,,001,2021_May_05_1627,list_pa,2021.1.4,59.8292950475548,
,,8,0,0,0,0,,,,,0,22,22,22,,,162.2754573999846,None,,001,2021_May_05_1627,list_pa,2021.1.4,59.8292950475548,
,,7,0,0,0,0,,,,,0,23,23,23,,,163.27483079998638,None,,001,2021_May_05_1627,list_pa,2021.1.4,59.8292950475548,
,,6,0,0,0,0,,,,,0,24,24,24,,,164.27568910000264,None,,001,2021_May_05_1627,list_pa,2021.1.4,59.8292950475548,
,,5,0,0,0,0,,,,,0,25,25,25,,,165.27598239999497,None,,001,2021_May_05_1627,list_pa,2021.1.4,59.8292950475548,
,,4,0,0,0,0,,,,,0,26,26,26,,,166.2761615999916,None,,001,2021_May_05_1627,list_pa,2021.1.4,59.8292950475548,
,,3,0,0,0,0,,,,,0,27,27,27,,,167.27559789997758,None,,001,2021_May_05_1627,list_pa,2021.1.4,59.8292950475548,
,,2,0,0,0,0,,,,,0,28,28,28,,,168.27642690000357,None,,001,2021_May_05_1627,list_pa,2021.1.4,59.8292950475548,
,,1,0,0,0,0,,,,,0,29,29,29,,,169.27554149998468,None,,001,2021_May_05_1627,list_pa,2021.1.4,59.8292950475548,
,,0,0,0,0,0,,,,,0,30,30,30,,,170.27634499999112,None,,001,2021_May_05_1627,list_pa,2021.1.4,59.8292950475548,
,,,0,0,0,0,,,,,,,,,,,,,,001,2021_May_05_1627,list_pa,2021.1.4,59.8292950475548,
sounds/droite.ogg,0.7,,1,0,1,0,0,0,0,28,,,,,171.99334559999988,None,,,,001,2021_May_05_1627,list_pa,2021.1.4,59.8292950475548,
sounds/droite.ogg,0.7,,1,0,1,0,0,1,1,32,,,,,173.4959938999964,172.8093476999784,,,,001,2021_May_05_1627,list_pa,2021.1.4,59.8292950475548,
sounds/gauche.ogg,0.7,,1,0,1,0,0,2,2,17,,,,,174.9929165999929,174.3102689999796,,,,001,2021_May_05_1627,list_pa,2021.1.4,59.8292950475548,
sounds/gauche.ogg,0.7,,1,0,1,0,0,3,3,21,,,,,176.49388749999343,None,,,,001,2021_May_05_1627,list_pa,2021.1.4,59.8292950475548,
sounds/gauche.ogg,0.7,,1,0,1,0,0,4,4,2,,,,,177.9951436999836,None,,,,001,2021_May_05_1627,list_pa,2021.1.4,59.8292950475548,
sounds/gauche.ogg,0.7,,1,0,1,0,0,5,5,9,,,,,179.49560639998526,178.8109959999856,,,,001,2021_May_05_1627,list_pa,2021.1.4,59.8292950475548,
sounds/gauche.ogg,0.7,,1,0,1,0,0,6,6,11,,,,,180.9953076999809,180.31208669999614,,,,001,2021_May_05_1627,list_pa,2021.1.4,59.8292950475548,
sounds/droite.ogg,0.7,,1,0,1,0,0,7,7,31,,,,,182.49584920000052,None,,,,001,2021_May_05_1627,list_pa,2021.1.4,59.8292950475548,
sounds/gauche.ogg,0.7,,1,0,1,0,0,8,8,13,,,,,183.9975826999871,183.31225719998474,,,,001,2021_May_05_1627,list_pa,2021.1.4,59.8292950475548,
sounds/gauche.ogg,0.7,,1,0,1,0,0,9,9,19,,,,,185.51290609998978,None,,,,001,2021_May_05_1627,list_pa,2021.1.4,59.8292950475548,
sounds/gauche.ogg,0.7,,1,0,1,0,0,10,10,18,,,,,187.01286739998613,186.32930669997586,,,,001,2021_May_05_1627,list_pa,2021.1.4,59.8292950475548,
sounds/droite.ogg,0.7,,1,0,1,0,0,11,11,39,,,,,188.51339979999466,187.83036309998715,,,,001,2021_May_05_1627,list_pa,2021.1.4,59.8292950475548,
sounds/gauche.ogg,0.7,,1,0,1,0,0,12,12,22,,,,,190.01376879998134,189.3299257000035,,,,001,2021_May_05_1627,list_pa,2021.1.4,59.8292950475548,
sounds/gauche.ogg,0.7,,1,0,1,0,0,13,13,6,,,,,191.51404529999127,None,,,,001,2021_May_05_1627,list_pa,2021.1.4,59.8292950475548,
sounds/gauche.ogg,0.7,,1,0,1,0,0,14,14,20,,,,,193.01445409998996,192.33081359998323,,,,001,2021_May_05_1627,list_pa,2021.1.4,59.8292950475548,
sounds/gauche.ogg,0.7,,1,0,1,0,0,15,15,4,,,,,194.51495779998368,193.8314019999816,,,,001,2021_May_05_1627,list_pa,2021.1.4,59.8292950475548,
sounds/droite.ogg,0.7,,1,0,1,0,0,16,16,25,,,,,196.0151178999804,195.33149729997967,,,,001,2021_May_05_1627,list_pa,2021.1.4,59.8292950475548,
sounds/gauche.ogg,0.7,,1,0,1,0,0,17,17,3,,,,,197.51567709998926,None,,,,001,2021_May_05_1627,list_pa,2021.1.4,59.8292950475548,
sounds/gauche.ogg,0.7,,1,0,1,0,0,18,18,24,,,,,199.01598830000148,198.3314094999805,,,,001,2021_May_05_1627,list_pa,2021.1.4,59.8292950475548,
sounds/gauche.ogg,0.7,,1,0,1,0,0,19,19,0,,,,,200.51590810000198,199.83244050000212,,,,001,2021_May_05_1627,list_pa,2021.1.4,59.8292950475548,
sounds/droite.ogg,0.7,,1,0,1,0,0,20,20,35,,,,,202.01643989997683,201.33154240000295,,,,001,2021_May_05_1627,list_pa,2021.1.4,59.8292950475548,
sounds/droite.ogg,0.7,,1,0,1,0,0,21,21,42,,,,,203.51653549997718,202.83260209998116,,,,001,2021_May_05_1627,list_pa,2021.1.4,59.8292950475548,
sounds/droite.ogg,0.7,,1,0,1,0,0,22,22,46,,,,,205.01673539998592,204.33270050000283,,,,001,2021_May_05_1627,list_pa,2021.1.4,59.8292950475548,
sounds/gauche.ogg,0.7,,1,0,1,0,0,23,23,15,,,,,206.5169480999757,205.83302719998755,,,,001,2021_May_05_1627,list_pa,2021.1.4,59.8292950475548,
sounds/gauche.ogg,0.7,,1,0,1,0,0,24,24,16,,,,,208.01706259997445,207.33379789997707,,,,001,2021_May_05_1627,list_pa,2021.1.4,59.8292950475548,
sounds/droite.ogg,0.7,,1,0,1,0,0,25,25,36,,,,,209.51756769997883,208.8340927999816,,,,001,2021_May_05_1627,list_pa,2021.1.4,59.8292950475548,
sounds/droite.ogg,0.7,,1,0,1,0,0,26,26,30,,,,,211.0177612999978,210.33378610000364,,,,001,2021_May_05_1627,list_pa,2021.1.4,59.8292950475548,
sounds/droite.ogg,0.7,,1,0,1,0,0,27,27,37,,,,,212.51794839999638,211.835202199989,,,,001,2021_May_05_1627,list_pa,2021.1.4,59.8292950475548,
sounds/droite.ogg,0.7,,1,0,1,0,0,28,28,45,,,,,214.018109800003,None,,,,001,2021_May_05_1627,list_pa,2021.1.4,59.8292950475548,
sounds/droite.ogg,0.7,,1,0,1,0,0,29,29,43,,,,,215.51858049997827,214.83567999998922,,,,001,2021_May_05_1627,list_pa,2021.1.4,59.8292950475548,
sounds/droite.ogg,0.7,,1,0,1,0,0,30,30,40,,,,,217.0191850999836,216.33442539998214,,,,001,2021_May_05_1627,list_pa,2021.1.4,59.8292950475548,
sounds/gauche.ogg,0.7,,1,0,1,0,0,31,31,5,,,,,218.51914709998528,None,,,,001,2021_May_05_1627,list_pa,2021.1.4,59.8292950475548,
sounds/droite.ogg,0.7,,1,0,1,0,0,32,32,34,,,,,220.01971709998907,219.33641699998407,,,,001,2021_May_05_1627,list_pa,2021.1.4,59.8292950475548,
sounds/droite.ogg,0.7,,1,0,1,0,0,33,33,44,,,,,221.52017479998176,220.83634409998194,,,,001,2021_May_05_1627,list_pa,2021.1.4,59.8292950475548,
sounds/gauche.ogg,0.7,,1,0,1,0,0,34,34,23,,,,,223.0201130999776,222.33658619999187,,,,001,2021_May_05_1627,list_pa,2021.1.4,59.8292950475548,
sounds/droite.ogg,0.7,,1,0,1,0,0,35,35,38,,,,,224.52106529998127,223.83618099999148,,,,001,2021_May_05_1627,list_pa,2021.1.4,59.8292950475548,
sounds/droite.ogg,0.7,,1,0,1,0,0,36,36,41,,,,,226.02069229999324,225.3369240000029,,,,001,2021_May_05_1627,list_pa,2021.1.4,59.8292950475548,
sounds/gauche.ogg,0.7,,1,0,1,0,0,37,37,8,,,,,227.5212038999889,226.8389966999821,,,,001,2021_May_05_1627,list_pa,2021.1.4,59.8292950475548,
sounds/gauche.ogg,0.7,,1,0,1,0,0,38,38,1,,,,,229.02148949998082,228.3378804999811,,,,001,2021_May_05_1627,list_pa,2021.1.4,59.8292950475548,
sounds/droite.ogg,0.7,,1,0,1,0,0,39,39,48,,,,,230.5216279999877,229.83851159998449,,,,001,2021_May_05_1627,list_pa,2021.1.4,59.8292950475548,
sounds/droite.ogg,0.7,,1,0,1,0,0,40,40,47,,,,,232.0227119999763,231.33914559998084,,,,001,2021_May_05_1627,list_pa,2021.1.4,59.8292950475548,
sounds/droite.ogg,0.7,,1,0,1,0,0,41,41,26,,,,,233.5225404999801,232.83940899997833,,,,001,2021_May_05_1627,list_pa,2021.1.4,59.8292950475548,
sounds/gauche.ogg,0.7,,1,0,1,0,0,42,42,7,,,,,235.02282549999654,None,,,,001,2021_May_05_1627,list_pa,2021.1.4,59.8292950475548,
sounds/droite.ogg,0.7,,1,0,1,0,0,43,43,49,,,,,236.52306939999107,235.83983479999006,,,,001,2021_May_05_1627,list_pa,2021.1.4,59.8292950475548,
sounds/droite.ogg,0.7,,1,0,1,0,0,44,44,33,,,,,238.02328969998052,237.33925429999363,,,,001,2021_May_05_1627,list_pa,2021.1.4,59.8292950475548,
sounds/gauche.ogg,0.7,,1,0,1,0,0,45,45,12,,,,,239.52370289998362,238.8403730999853,,,,001,2021_May_05_1627,list_pa,2021.1.4,59.8292950475548,
sounds/gauche.ogg,0.7,,1,0,1,0,0,46,46,14,,,,,241.0241515999951,240.34023589998833,,,,001,2021_May_05_1627,list_pa,2021.1.4,59.8292950475548,
sounds/droite.ogg,0.7,,1,0,1,0,0,47,47,27,,,,,242.5239111999981,241.84017469998798,,,,001,2021_May_05_1627,list_pa,2021.1.4,59.8292950475548,
sounds/gauche.ogg,0.7,,1,0,1,0,0,48,48,10,,,,,244.02595660000225,243.34023989998968,,,,001,2021_May_05_1627,list_pa,2021.1.4,59.8292950475548,
sounds/droite.ogg,0.7,,1,0,1,0,0,49,49,29,,,,,245.5253745999944,244.84094689998892,,,,001,2021_May_05_1627,list_pa,2021.1.4,59.8292950475548,
,,30,1,0,1,0,,,,,0,0,0,0,,,246.37436049999087,None,,001,2021_May_05_1627,list_pa,2021.1.4,59.8292950475548,
,,29,1,0,1,0,,,,,0,1,1,1,,,247.35955209998065,None,,001,2021_May_05_1627,list_pa,2021.1.4,59.8292950475548,
,,28,1,0,1,0,,,,,0,2,2,2,,,248.35936839997885,None,,001,2021_May_05_1627,list_pa,2021.1.4,59.8292950475548,
,,27,1,0,1,0,,,,,0,3,3,3,,,249.35847369997646,None,,001,2021_May_05_1627,list_pa,2021.1.4,59.8292950475548,
,,26,1,0,1,0,,,,,0,4,4,4,,,250.35937639998156,None,,001,2021_May_05_1627,list_pa,2021.1.4,59.8292950475548,
,,25,1,0,1,0,,,,,0,5,5,5,,,251.35938549999264,None,,001,2021_May_05_1627,list_pa,2021.1.4,59.8292950475548,
,,24,1,0,1,0,,,,,0,6,6,6,,,252.35942809999688,None,,001,2021_May_05_1627,list_pa,2021.1.4,59.8292950475548,
,,23,1,0,1,0,,,,,0,7,7,7,,,253.36004060000414,None,,001,2021_May_05_1627,list_pa,2021.1.4,59.8292950475548,
,,22,1,0,1,0,,,,,0,8,8,8,,,254.35934169997927,None,,001,2021_May_05_1627,list_pa,2021.1.4,59.8292950475548,
,,21,1,0,1,0,,,,,0,9,9,9,,,255.36018150000018,None,,001,2021_May_05_1627,list_pa,2021.1.4,59.8292950475548,
,,20,1,0,1,0,,,,,0,10,10,10,,,256.36072159998,None,,001,2021_May_05_1627,list_pa,2021.1.4,59.8292950475548,
,,19,1,0,1,0,,,,,0,11,11,11,,,257.3605014999921,None,,001,2021_May_05_1627,list_pa,2021.1.4,59.8292950475548,
,,18,1,0,1,0,,,,,0,12,12,12,,,258.36069410000346,None,,001,2021_May_05_1627,list_pa,2021.1.4,59.8292950475548,
,,17,1,0,1,0,,,,,0,13,13,13,,,259.3620510000037,None,,001,2021_May_05_1627,list_pa,2021.1.4,59.8292950475548,
,,16,1,0,1,0,,,,,0,14,14,14,,,260.3617071000044,None,,001,2021_May_05_1627,list_pa,2021.1.4,59.8292950475548,
,,15,1,0,1,0,,,,,0,15,15,15,,,261.36110909999115,None,,001,2021_May_05_1627,list_pa,2021.1.4,59.8292950475548,
,,14,1,0,1,0,,,,,0,16,16,16,,,262.3615668999846,None,,001,2021_May_05_1627,list_pa,2021.1.4,59.8292950475548,
,,13,1,0,1,0,,,,,0,17,17,17,,,263.3619011999981,None,,001,2021_May_05_1627,list_pa,2021.1.4,59.8292950475548,
,,12,1,0,1,0,,,,,0,18,18,18,,,264.3616151000024,None,,001,2021_May_05_1627,list_pa,2021.1.4,59.8292950475548,
,,11,1,0,1,0,,,,,0,19,19,19,,,265.3623621999868,None,,001,2021_May_05_1627,list_pa,2021.1.4,59.8292950475548,
,,10,1,0,1,0,,,,,0,20,20,20,,,266.3620251999819,None,,001,2021_May_05_1627,list_pa,2021.1.4,59.8292950475548,
,,9,1,0,1,0,,,,,0,21,21,21,,,267.36304309999105,None,,001,2021_May_05_1627,list_pa,2021.1.4,59.8292950475548,
,,8,1,0,1,0,,,,,0,22,22,22,,,268.3626181999862,None,,001,2021_May_05_1627,list_pa,2021.1.4,59.8292950475548,
,,7,1,0,1,0,,,,,0,23,23,23,,,269.3637380999862,None,,001,2021_May_05_1627,list_pa,2021.1.4,59.8292950475548,
,,6,1,0,1,0,,,,,0,24,24,24,,,270.3477607999812,None,,001,2021_May_05_1627,list_pa,2021.1.4,59.8292950475548,
,,5,1,0,1,0,,,,,0,25,25,25,,,271.3642113999813,None,,001,2021_May_05_1627,list_pa,2021.1.4,59.8292950475548,
,,4,1,0,1,0,,,,,0,26,26,26,,,272.34748329999275,None,,001,2021_May_05_1627,list_pa,2021.1.4,59.8292950475548,
,,3,1,0,1,0,,,,,0,27,27,27,,,273.3475376999995,None,,001,2021_May_05_1627,list_pa,2021.1.4,59.8292950475548,
,,2,1,0,1,0,,,,,0,28,28,28,,,274.3472947999835,None,,001,2021_May_05_1627,list_pa,2021.1.4,59.8292950475548,
,,1,1,0,1,0,,,,,0,29,29,29,,,275.3494074999762,None,,001,2021_May_05_1627,list_pa,2021.1.4,59.8292950475548,
,,0,1,0,1,0,,,,,0,30,30,30,,,276.34834149997914,None,,001,2021_May_05_1627,list_pa,2021.1.4,59.8292950475548,
,,,1,0,1,0,,,,,,,,,,,,,,001,2021_May_05_1627,list_pa,2021.1.4,59.8292950475548,
sounds/gauche.ogg,0.7,,2,0,2,0,0,0,0,21,,,,,278.0814539999992,None,,,,001,2021_May_05_1627,list_pa,2021.1.4,59.8292950475548,
sounds/gauche.ogg,0.7,,2,0,2,0,0,1,1,16,,,,,279.58193359998404,278.8981337999867,,,,001,2021_May_05_1627,list_pa,2021.1.4,59.8292950475548,
sounds/droite.ogg,0.7,,2,0,2,0,0,2,2,32,,,,,281.08220859998255,280.39890719999676,,,,001,2021_May_05_1627,list_pa,2021.1.4,59.8292950475548,
sounds/droite.ogg,0.7,,2,0,2,0,0,3,3,37,,,,,282.58261529999436,281.8977924999781,,,,001,2021_May_05_1627,list_pa,2021.1.4,59.8292950475548,
sounds/droite.ogg,0.7,,2,0,2,0,0,4,4,28,,,,,284.0829688999802,283.3988320999779,,,,001,2021_May_05_1627,list_pa,2021.1.4,59.8292950475548,
sounds/droite.ogg,0.7,,2,0,2,0,0,5,5,39,,,,,285.58315140000195,284.89923609999823,,,,001,2021_May_05_1627,list_pa,2021.1.4,59.8292950475548,
sounds/droite.ogg,0.7,,2,0,2,0,0,6,6,33,,,,,287.08355479998863,286.39935890000197,,,,001,2021_May_05_1627,list_pa,2021.1.4,59.8292950475548,
sounds/droite.ogg,0.7,,2,0,2,0,0,7,7,26,,,,,288.60037400000147,None,,,,001,2021_May_05_1627,list_pa,2021.1.4,59.8292950475548,
sounds/gauche.ogg,0.7,,2,0,2,0,0,8,8,20,,,,,290.10059679998085,289.4172694000008,,,,001,2021_May_05_1627,list_pa,2021.1.4,59.8292950475548,
sounds/gauche.ogg,0.7,,2,0,2,0,0,9,9,1,,,,,291.6009518999781,290.91638879998936,,,,001,2021_May_05_1627,list_pa,2021.1.4,59.8292950475548,
sounds/gauche.ogg,0.7,,2,0,2,0,0,10,10,7,,,,,293.1009239999985,292.41784959999495,,,,001,2021_May_05_1627,list_pa,2021.1.4,59.8292950475548,
sounds/droite.ogg,0.7,,2,0,2,0,0,11,11,42,,,,,294.60140449999017,293.9186957999773,,,,001,2021_May_05_1627,list_pa,2021.1.4,59.8292950475548,
sounds/droite.ogg,0.7,,2,0,2,0,0,12,12,40,,,,,296.10174630000256,295.4186123999825,,,,001,2021_May_05_1627,list_pa,2021.1.4,59.8292950475548,
sounds/droite.ogg,0.7,,2,0,2,0,0,13,13,34,,,,,297.6021911999851,296.9177637999819,,,,001,2021_May_05_1627,list_pa,2021.1.4,59.8292950475548,
sounds/droite.ogg,0.7,,2,0,2,0,0,14,14,30,,,,,299.10301359998994,298.4193148999766,,,,001,2021_May_05_1627,list_pa,2021.1.4,59.8292950475548,
sounds/droite.ogg,0.7,,2,0,2,0,0,15,15,47,,,,,300.6028240000014,299.91926999998395,,,,001,2021_May_05_1627,list_pa,2021.1.4,59.8292950475548,
sounds/gauche.ogg,0.7,,2,0,2,0,0,16,16,8,,,,,302.1031491999747,301.41817659998196,,,,001,2021_May_05_1627,list_pa,2021.1.4,59.8292950475548,
sounds/gauche.ogg,0.7,,2,0,2,0,0,17,17,19,,,,,303.6030498999753,302.91939519997686,,,,001,2021_May_05_1627,list_pa,2021.1.4,59.8292950475548,
sounds/gauche.ogg,0.7,,2,0,2,0,0,18,18,22,,,,,305.1037071000028,None,,,,001,2021_May_05_1627,list_pa,2021.1.4,59.8292950475548,
sounds/gauche.ogg,0.7,,2,0,2,0,0,19,19,15,,,,,306.6044750000001,305.92022010000073,,,,001,2021_May_05_1627,list_pa,2021.1.4,59.8292950475548,
sounds/gauche.ogg,0.7,,2,0,2,0,0,20,20,0,,,,,308.1043191999779,307.41934399999445,,,,001,2021_May_05_1627,list_pa,2021.1.4,59.8292950475548,
sounds/droite.ogg,0.7,,2,0,2,0,0,21,21,38,,,,,309.6047238999745,308.9206118999864,,,,001,2021_May_05_1627,list_pa,2021.1.4,59.8292950475548,
sounds/gauche.ogg,0.7,,2,0,2,0,0,22,22,24,,,,,311.10486399999354,310.42077450000215,,,,001,2021_May_05_1627,list_pa,2021.1.4,59.8292950475548,
sounds/droite.ogg,0.7,,2,0,2,0,0,23,23,49,,,,,312.60517319999053,311.9202510000032,,,,001,2021_May_05_1627,list_pa,2021.1.4,59.8292950475548,
sounds/gauche.ogg,0.7,,2,0,2,0,0,24,24,6,,,,,314.10557439998956,313.42209659999935,,,,001,2021_May_05_1627,list_pa,2021.1.4,59.8292950475548,
sounds/gauche.ogg,0.7,,2,0,2,0,0,25,25,23,,,,,315.60602379997727,314.92223239998566,,,,001,2021_May_05_1627,list_pa,2021.1.4,59.8292950475548,
sounds/droite.ogg,0.7,,2,0,2,0,0,26,26,27,,,,,317.1062105000019,316.42244460000074,,,,001,2021_May_05_1627,list_pa,2021.1.4,59.8292950475548,
sounds/droite.ogg,0.7,,2,0,2,0,0,27,27,44,,,,,318.60664559999714,317.9232761999883,,,,001,2021_May_05_1627,list_pa,2021.1.4,59.8292950475548,
sounds/gauche.ogg,0.7,,2,0,2,0,0,28,28,13,,,,,320.10680179999326,319.4228045999771,,,,001,2021_May_05_1627,list_pa,2021.1.4,59.8292950475548,
sounds/gauche.ogg,0.7,,2,0,2,0,0,29,29,10,,,,,321.6069954999839,320.92310299997916,,,,001,2021_May_05_1627,list_pa,2021.1.4,59.8292950475548,
sounds/droite.ogg,0.7,,2,0,2,0,0,30,30,45,,,,,323.1076518999762,None,,,,001,2021_May_05_1627,list_pa,2021.1.4,59.8292950475548,
sounds/gauche.ogg,0.7,,2,0,2,0,0,31,31,12,,,,,324.60766779998085,323.9245281999756,,,,001,2021_May_05_1627,list_pa,2021.1.4,59.8292950475548,
sounds/gauche.ogg,0.7,,2,0,2,0,0,32,32,14,,,,,326.1077763999929,325.425159299979,,,,001,2021_May_05_1627,list_pa,2021.1.4,59.8292950475548,
sounds/droite.ogg,0.7,,2,0,2,0,0,33,33,46,,,,,327.6079685000004,None,,,,001,2021_May_05_1627,list_pa,2021.1.4,59.8292950475548,
sounds/gauche.ogg,0.7,,2,0,2,0,0,34,34,3,,,,,329.10806229998707,328.4241608000011,,,,001,2021_May_05_1627,list_pa,2021.1.4,59.8292950475548,
sounds/gauche.ogg,0.7,,2,0,2,0,0,35,35,11,,,,,330.6087335999764,329.9258262999938,,,,001,2021_May_05_1627,list_pa,2021.1.4,59.8292950475548,
sounds/droite.ogg,0.7,,2,0,2,0,0,36,36,36,,,,,332.1085553999874,331.42582299999776,,,,001,2021_May_05_1627,list_pa,2021.1.4,59.8292950475548,
sounds/droite.ogg,0.7,,2,0,2,0,0,37,37,35,,,,,333.60999219998484,332.9264940999856,,,,001,2021_May_05_1627,list_pa,2021.1.4,59.8292950475548,
sounds/droite.ogg,0.7,,2,0,2,0,0,38,38,31,,,,,335.1091976999887,334.42520929998136,,,,001,2021_May_05_1627,list_pa,2021.1.4,59.8292950475548,
sounds/gauche.ogg,0.7,,2,0,2,0,0,39,39,4,,,,,336.61012099997606,335.92693190000136,,,,001,2021_May_05_1627,list_pa,2021.1.4,59.8292950475548,
sounds/droite.ogg,0.7,,2,0,2,0,0,40,40,43,,,,,338.11031609997735,337.4256681999832,,,,001,2021_May_05_1627,list_pa,2021.1.4,59.8292950475548,
sounds/gauche.ogg,0.7,,2,0,2,0,0,41,41,9,,,,,339.61127699998906,338.9257829999842,,,,001,2021_May_05_1627,list_pa,2021.1.4,59.8292950475548,
sounds/droite.ogg,0.7,,2,0,2,0,0,42,42,29,,,,,341.11078129999805,340.4266527,,,,001,2021_May_05_1627,list_pa,2021.1.4,59.8292950475548,
sounds/gauche.ogg,0.7,,2,0,2,0,0,43,43,17,,,,,342.61354500000016,341.92685409999103,,,,001,2021_May_05_1627,list_pa,2021.1.4,59.8292950475548,
sounds/droite.ogg,0.7,,2,0,2,0,0,44,44,25,,,,,344.1113084999961,None,,,,001,2021_May_05_1627,list_pa,2021.1.4,59.8292950475548,
sounds/gauche.ogg,0.7,,2,0,2,0,0,45,45,18,,,,,345.6134470999823,344.92885319999186,,,,001,2021_May_05_1627,list_pa,2021.1.4,59.8292950475548,
sounds/droite.ogg,0.7,,2,0,2,0,0,46,46,41,,,,,347.12869630000205,None,,,,001,2021_May_05_1627,list_pa,2021.1.4,59.8292950475548,
sounds/droite.ogg,0.7,,2,0,2,0,0,47,47,48,,,,,348.62921789998654,347.94646159998956,,,,001,2021_May_05_1627,list_pa,2021.1.4,59.8292950475548,
sounds/gauche.ogg,0.7,,2,0,2,0,0,48,48,5,,,,,350.12892449999345,349.4451885999879,,,,001,2021_May_05_1627,list_pa,2021.1.4,59.8292950475548,
sounds/gauche.ogg,0.7,,2,0,2,0,0,49,49,2,,,,,351.6295838999795,350.9469949999766,,,,001,2021_May_05_1627,list_pa,2021.1.4,59.8292950475548,
,,30,2,0,2,0,,,,,0,0,0,0,,,352.4623655999894,None,,001,2021_May_05_1627,list_pa,2021.1.4,59.8292950475548,
,,29,2,0,2,0,,,,,0,1,1,1,,,353.4633052999852,None,,001,2021_May_05_1627,list_pa,2021.1.4,59.8292950475548,
,,28,2,0,2,0,,,,,0,2,2,2,,,354.4634916999785,None,,001,2021_May_05_1627,list_pa,2021.1.4,59.8292950475548,
,,27,2,0,2,0,,,,,0,3,3,3,,,355.4641256000032,None,,001,2021_May_05_1627,list_pa,2021.1.4,59.8292950475548,
,,26,2,0,2,0,,,,,0,4,4,4,,,356.4642338999838,None,,001,2021_May_05_1627,list_pa,2021.1.4,59.8292950475548,
,,25,2,0,2,0,,,,,0,5,5,5,,,357.4650330999866,None,,001,2021_May_05_1627,list_pa,2021.1.4,59.8292950475548,
,,24,2,0,2,0,,,,,0,6,6,6,,,358.46498329998576,None,,001,2021_May_05_1627,list_pa,2021.1.4,59.8292950475548,
,,23,2,0,2,0,,,,,0,7,7,7,,,359.4655459999922,None,,001,2021_May_05_1627,list_pa,2021.1.4,59.8292950475548,
,,22,2,0,2,0,,,,,0,8,8,8,,,360.4652361999906,None,,001,2021_May_05_1627,list_pa,2021.1.4,59.8292950475548,
,,21,2,0,2,0,,,,,0,9,9,9,,,361.46545339998556,None,,001,2021_May_05_1627,list_pa,2021.1.4,59.8292950475548,
,,20,2,0,2,0,,,,,0,10,10,10,,,362.44730709999567,None,,001,2021_May_05_1627,list_pa,2021.1.4,59.8292950475548,
,,19,2,0,2,0,,,,,0,11,11,11,,,363.465587099985,None,,001,2021_May_05_1627,list_pa,2021.1.4,59.8292950475548,
,,18,2,0,2,0,,,,,0,12,12,12,,,364.46643889998086,None,,001,2021_May_05_1627,list_pa,2021.1.4,59.8292950475548,
,,17,2,0,2,0,,,,,0,13,13,13,,,365.46616419998463,None,,001,2021_May_05_1627,list_pa,2021.1.4,59.8292950475548,
,,16,2,0,2,0,,,,,0,14,14,14,,,366.4664741999877,None,,001,2021_May_05_1627,list_pa,2021.1.4,59.8292950475548,
,,15,2,0,2,0,,,,,0,15,15,15,,,367.4666658999922,None,,001,2021_May_05_1627,list_pa,2021.1.4,59.8292950475548,
,,14,2,0,2,0,,,,,0,16,16,16,,,368.44982199999504,None,,001,2021_May_05_1627,list_pa,2021.1.4,59.8292950475548,
,,13,2,0,2,0,,,,,0,17,17,17,,,369.45032909998554,None,,001,2021_May_05_1627,list_pa,2021.1.4,59.8292950475548,
,,12,2,0,2,0,,,,,0,18,18,18,,,370.45037690000026,None,,001,2021_May_05_1627,list_pa,2021.1.4,59.8292950475548,
,,11,2,0,2,0,,,,,0,19,19,19,,,371.4510540999763,None,,001,2021_May_05_1627,list_pa,2021.1.4,59.8292950475548,
,,10,2,0,2,0,,,,,0,20,20,20,,,372.45155080000404,None,,001,2021_May_05_1627,list_pa,2021.1.4,59.8292950475548,
,,9,2,0,2,0,,,,,0,21,21,21,,,373.45252099999925,None,,001,2021_May_05_1627,list_pa,2021.1.4,59.8292950475548,
,,8,2,0,2,0,,,,,0,22,22,22,,,374.45080179997603,None,,001,2021_May_05_1627,list_pa,2021.1.4,59.8292950475548,
,,7,2,0,2,0,,,,,0,23,23,23,,,375.45163799999864,None,,001,2021_May_05_1627,list_pa,2021.1.4,59.8292950475548,
,,6,2,0,2,0,,,,,0,24,24,24,,,376.450966000004,None,,001,2021_May_05_1627,list_pa,2021.1.4,59.8292950475548,
,,5,2,0,2,0,,,,,0,25,25,25,,,377.45185630000196,None,,001,2021_May_05_1627,list_pa,2021.1.4,59.8292950475548,
,,4,2,0,2,0,,,,,0,26,26,26,,,378.451153699978,None,,001,2021_May_05_1627,list_pa,2021.1.4,59.8292950475548,
,,3,2,0,2,0,,,,,0,27,27,27,,,379.45181289999164,None,,001,2021_May_05_1627,list_pa,2021.1.4,59.8292950475548,
,,2,2,0,2,0,,,,,0,28,28,28,,,380.45219759998145,None,,001,2021_May_05_1627,list_pa,2021.1.4,59.8292950475548,
,,1,2,0,2,0,,,,,0,29,29,29,,,381.4526887999964,None,,001,2021_May_05_1627,list_pa,2021.1.4,59.8292950475548,
,,0,2,0,2,0,,,,,0,30,30,30,,,382.45270729999174,None,,001,2021_May_05_1627,list_pa,2021.1.4,59.8292950475548,
,,,2,0,2,0,,,,,,,,,,,,,,001,2021_May_05_1627,list_pa,2021.1.4,59.8292950475548,
sounds/droite.ogg,0.7,,3,0,3,0,0,0,0,31,,,,,384.1700178000028,None,,,,001,2021_May_05_1627,list_pa,2021.1.4,59.8292950475548,
sounds/gauche.ogg,0.7,,3,0,3,0,0,1,1,14,,,,,385.6700537999859,384.9865259999933,,,,001,2021_May_05_1627,list_pa,2021.1.4,59.8292950475548,
sounds/gauche.ogg,0.7,,3,0,3,0,0,2,2,20,,,,,387.17015119999996,386.4866775999835,,,,001,2021_May_05_1627,list_pa,2021.1.4,59.8292950475548,
sounds/gauche.ogg,0.7,,3,0,3,0,0,3,3,1,,,,,388.671190699999,387.9871945999912,,,,001,2021_May_05_1627,list_pa,2021.1.4,59.8292950475548,
sounds/droite.ogg,0.7,,3,0,3,0,0,4,4,28,,,,,390.1708046999993,389.486656699999,,,,001,2021_May_05_1627,list_pa,2021.1.4,59.8292950475548,
sounds/droite.ogg,0.7,,3,0,3,0,0,5,5,44,,,,,391.67136209999444,390.9878850999812,,,,001,2021_May_05_1627,list_pa,2021.1.4,59.8292950475548,
sounds/droite.ogg,0.7,,3,0,3,0,0,6,6,42,,,,,393.1716219999944,392.488620899996,,,,001,2021_May_05_1627,list_pa,2021.1.4,59.8292950475548,
sounds/gauche.ogg,0.7,,3,0,3,0,0,7,7,22,,,,,394.67181589998654,393.9879544999858,,,,001,2021_May_05_1627,list_pa,2021.1.4,59.8292950475548,
sounds/droite.ogg,0.7,,3,0,3,0,0,8,8,41,,,,,396.1719672999752,395.488772599987,,,,001,2021_May_05_1627,list_pa,2021.1.4,59.8292950475548,
sounds/gauche.ogg,0.7,,3,0,3,0,0,9,9,11,,,,,397.67246039997553,None,,,,001,2021_May_05_1627,list_pa,2021.1.4,59.8292950475548,
sounds/droite.ogg,0.7,,3,0,3,0,0,10,10,45,,,,,399.17291199998,None,,,,001,2021_May_05_1627,list_pa,2021.1.4,59.8292950475548,
sounds/gauche.ogg,0.7,,3,0,3,0,0,11,11,15,,,,,400.689561999985,None,,,,001,2021_May_05_1627,list_pa,2021.1.4,59.8292950475548,
sounds/droite.ogg,0.7,,3,0,3,0,0,12,12,26,,,,,402.19047059997683,None,,,,001,2021_May_05_1627,list_pa,2021.1.4,59.8292950475548,
sounds/droite.ogg,0.7,,3,0,3,0,0,13,13,35,,,,,403.69062089998624,403.0071493999858,,,,001,2021_May_05_1627,list_pa,2021.1.4,59.8292950475548,
sounds/gauche.ogg,0.7,,3,0,3,0,0,14,14,17,,,,,405.19019419999677,404.5078973999771,,,,001,2021_May_05_1627,list_pa,2021.1.4,59.8292950475548,
sounds/droite.ogg,0.7,,3,0,3,0,0,15,15,32,,,,,406.6907505999843,406.00664859998506,,,,001,2021_May_05_1627,list_pa,2021.1.4,59.8292950475548,
sounds/droite.ogg,0.7,,3,0,3,0,0,16,16,27,,,,,408.1918385999743,407.5087368999957,,,,001,2021_May_05_1627,list_pa,2021.1.4,59.8292950475548,
sounds/gauche.ogg,0.7,,3,0,3,0,0,17,17,9,,,,,409.6915686999855,409.0086183999956,,,,001,2021_May_05_1627,list_pa,2021.1.4,59.8292950475548,
sounds/gauche.ogg,0.7,,3,0,3,0,0,18,18,7,,,,,411.1919218999974,410.50844619999407,,,,001,2021_May_05_1627,list_pa,2021.1.4,59.8292950475548,
sounds/droite.ogg,0.7,,3,0,3,0,0,19,19,46,,,,,412.6922723999887,412.00794719997793,,,,001,2021_May_05_1627,list_pa,2021.1.4,59.8292950475548,
sounds/gauche.ogg,0.7,,3,0,3,0,0,20,20,0,,,,,414.1925921999791,413.5093418000033,,,,001,2021_May_05_1627,list_pa,2021.1.4,59.8292950475548,
sounds/gauche.ogg,0.7,,3,0,3,0,0,21,21,3,,,,,415.69294709997484,415.00916029998916,,,,001,2021_May_05_1627,list_pa,2021.1.4,59.8292950475548,
sounds/droite.ogg,0.7,,3,0,3,0,0,22,22,33,,,,,417.19314729998587,416.50940119998995,,,,001,2021_May_05_1627,list_pa,2021.1.4,59.8292950475548,
sounds/droite.ogg,0.7,,3,0,3,0,0,23,23,43,,,,,418.69358120000106,418.0097126000037,,,,001,2021_May_05_1627,list_pa,2021.1.4,59.8292950475548,
sounds/droite.ogg,0.7,,3,0,3,0,0,24,24,29,,,,,420.19431339998846,None,,,,001,2021_May_05_1627,list_pa,2021.1.4,59.8292950475548,
sounds/gauche.ogg,0.7,,3,0,3,0,0,25,25,5,,,,,421.69415169997956,421.00975639998796,,,,001,2021_May_05_1627,list_pa,2021.1.4,59.8292950475548,
sounds/droite.ogg,0.7,,3,0,3,0,0,26,26,38,,,,,423.19442549999803,422.5112785999954,,,,001,2021_May_05_1627,list_pa,2021.1.4,59.8292950475548,
sounds/gauche.ogg,0.7,,3,0,3,0,0,27,27,10,,,,,424.6957779999939,424.01031039998634,,,,001,2021_May_05_1627,list_pa,2021.1.4,59.8292950475548,
sounds/gauche.ogg,0.7,,3,0,3,0,0,28,28,12,,,,,426.1947463999968,425.51118489998044,,,,001,2021_May_05_1627,list_pa,2021.1.4,59.8292950475548,
sounds/gauche.ogg,0.7,,3,0,3,0,0,29,29,6,,,,,427.6959149999893,427.0100969999912,,,,001,2021_May_05_1627,list_pa,2021.1.4,59.8292950475548,
sounds/gauche.ogg,0.7,,3,0,3,0,0,30,30,18,,,,,429.1960927999753,428.5121275999991,,,,001,2021_May_05_1627,list_pa,2021.1.4,59.8292950475548,
sounds/gauche.ogg,0.7,,3,0,3,0,0,31,31,19,,,,,430.6960854999779,430.0126421999885,,,,001,2021_May_05_1627,list_pa,2021.1.4,59.8292950475548,
sounds/droite.ogg,0.7,,3,0,3,0,0,32,32,30,,,,,432.19675189998816,431.5127900999796,,,,001,2021_May_05_1627,list_pa,2021.1.4,59.8292950475548,
sounds/gauche.ogg,0.7,,3,0,3,0,0,33,33,23,,,,,433.6970842999872,433.01379569998244,,,,001,2021_May_05_1627,list_pa,2021.1.4,59.8292950475548,
sounds/gauche.ogg,0.7,,3,0,3,0,0,34,34,24,,,,,435.19689009999274,434.51374179997947,,,,001,2021_May_05_1627,list_pa,2021.1.4,59.8292950475548,
sounds/gauche.ogg,0.7,,3,0,3,0,0,35,35,8,,,,,436.69745019997936,None,,,,001,2021_May_05_1627,list_pa,2021.1.4,59.8292950475548,
sounds/gauche.ogg,0.7,,3,0,3,0,0,36,36,2,,,,,438.1981310999836,437.514539900003,,,,001,2021_May_05_1627,list_pa,2021.1.4,59.8292950475548,
sounds/gauche.ogg,0.7,,3,0,3,0,0,37,37,16,,,,,439.7144817999797,None,,,,001,2021_May_05_1627,list_pa,2021.1.4,59.8292950475548,
sounds/droite.ogg,0.7,,3,0,3,0,0,38,38,25,,,,,441.21430369999143,440.5305099999823,,,,001,2021_May_05_1627,list_pa,2021.1.4,59.8292950475548,
sounds/droite.ogg,0.7,,3,0,3,0,0,39,39,36,,,,,442.7157194999745,442.0314061999961,,,,001,2021_May_05_1627,list_pa,2021.1.4,59.8292950475548,
sounds/droite.ogg,0.7,,3,0,3,0,0,40,40,49,,,,,444.2155792999838,443.5315678999759,,,,001,2021_May_05_1627,list_pa,2021.1.4,59.8292950475548,
sounds/droite.ogg,0.7,,3,0,3,0,0,41,41,39,,,,,445.7154326000018,445.03219139997964,,,,001,2021_May_05_1627,list_pa,2021.1.4,59.8292950475548,
sounds/droite.ogg,0.7,,3,0,3,0,0,42,42,37,,,,,447.21646379999584,446.53219840000384,,,,001,2021_May_05_1627,list_pa,2021.1.4,59.8292950475548,
sounds/gauche.ogg,0.7,,3,0,3,0,0,43,43,21,,,,,448.71606429998064,448.0324503000011,,,,001,2021_May_05_1627,list_pa,2021.1.4,59.8292950475548,
sounds/gauche.ogg,0.7,,3,0,3,0,0,44,44,4,,,,,450.2165463999845,449.5331570999988,,,,001,2021_May_05_1627,list_pa,2021.1.4,59.8292950475548,
sounds/droite.ogg,0.7,,3,0,3,0,0,45,45,48,,,,,451.71681099999114,None,,,,001,2021_May_05_1627,list_pa,2021.1.4,59.8292950475548,
sounds/droite.ogg,0.7,,3,0,3,0,0,46,46,34,,,,,453.217191099975,452.5340443000023,,,,001,2021_May_05_1627,list_pa,2021.1.4,59.8292950475548,
sounds/droite.ogg,0.7,,3,0,3,0,0,47,47,40,,,,,454.7175272000022,454.03455979999853,,,,001,2021_May_05_1627,list_pa,2021.1.4,59.8292950475548,
sounds/gauche.ogg,0.7,,3,0,3,0,0,48,48,13,,,,,456.21731369997724,None,,,,001,2021_May_05_1627,list_pa,2021.1.4,59.8292950475548,
sounds/droite.ogg,0.7,,3,0,3,0,0,49,49,47,,,,,457.71836249998887,457.03351809998276,,,,001,2021_May_05_1627,list_pa,2021.1.4,59.8292950475548,
,,30,3,0,3,0,,,,,0,0,0,0,,,458.5682229999802,None,,001,2021_May_05_1627,list_pa,2021.1.4,59.8292950475548,
,,29,3,0,3,0,,,,,0,1,1,1,,,459.5515775999811,None,,001,2021_May_05_1627,list_pa,2021.1.4,59.8292950475548,
,,28,3,0,3,0,,,,,0,2,2,2,,,460.55233999999473,None,,001,2021_May_05_1627,list_pa,2021.1.4,59.8292950475548,
,,27,3,0,3,0,,,,,0,3,3,3,,,461.55211150000105,None,,001,2021_May_05_1627,list_pa,2021.1.4,59.8292950475548,
,,26,3,0,3,0,,,,,0,4,4,4,,,462.5527069999953,None,,001,2021_May_05_1627,list_pa,2021.1.4,59.8292950475548,
,,25,3,0,3,0,,,,,0,5,5,5,,,463.5527501000033,None,,001,2021_May_05_1627,list_pa,2021.1.4,59.8292950475548,
,,24,3,0,3,0,,,,,0,6,6,6,,,464.55313349998323,None,,001,2021_May_05_1627,list_pa,2021.1.4,59.8292950475548,
,,23,3,0,3,0,,,,,0,7,7,7,,,465.55115649997606,None,,001,2021_May_05_1627,list_pa,2021.1.4,59.8292950475548,
,,22,3,0,3,0,,,,,0,8,8,8,,,466.5532564999885,None,,001,2021_May_05_1627,list_pa,2021.1.4,59.8292950475548,
,,21,3,0,3,0,,,,,0,9,9,9,,,467.55364319999353,None,,001,2021_May_05_1627,list_pa,2021.1.4,59.8292950475548,
,,20,3,0,3,0,,,,,0,10,10,10,,,468.5541094999935,None,,001,2021_May_05_1627,list_pa,2021.1.4,59.8292950475548,
,,19,3,0,3,0,,,,,0,11,11,11,,,469.5539118000015,None,,001,2021_May_05_1627,list_pa,2021.1.4,59.8292950475548,
,,18,3,0,3,0,,,,,0,12,12,12,,,470.53791569999885,None,,001,2021_May_05_1627,list_pa,2021.1.4,59.8292950475548,
,,17,3,0,3,0,,,,,0,13,13,13,,,471.55356040000333,None,,001,2021_May_05_1627,list_pa,2021.1.4,59.8292950475548,
,,16,3,0,3,0,,,,,0,14,14,14,,,472.5367792999896,None,,001,2021_May_05_1627,list_pa,2021.1.4,59.8292950475548,
,,15,3,0,3,0,,,,,0,15,15,15,,,473.53868639998836,None,,001,2021_May_05_1627,list_pa,2021.1.4,59.8292950475548,
,,14,3,0,3,0,,,,,0,16,16,16,,,474.5387895999884,None,,001,2021_May_05_1627,list_pa,2021.1.4,59.8292950475548,
,,13,3,0,3,0,,,,,0,17,17,17,,,475.5385170999798,None,,001,2021_May_05_1627,list_pa,2021.1.4,59.8292950475548,
,,12,3,0,3,0,,,,,0,18,18,18,,,476.53858839999884,None,,001,2021_May_05_1627,list_pa,2021.1.4,59.8292950475548,
,,11,3,0,3,0,,,,,0,19,19,19,,,477.5393273999798,None,,001,2021_May_05_1627,list_pa,2021.1.4,59.8292950475548,
,,10,3,0,3,0,,,,,0,20,20,20,,,478.53942119999556,None,,001,2021_May_05_1627,list_pa,2021.1.4,59.8292950475548,
,,9,3,0,3,0,,,,,0,21,21,21,,,479.5384635999799,None,,001,2021_May_05_1627,list_pa,2021.1.4,59.8292950475548,
,,8,3,0,3,0,,,,,0,22,22,22,,,480.53955699998187,None,,001,2021_May_05_1627,list_pa,2021.1.4,59.8292950475548,
,,7,3,0,3,0,,,,,0,23,23,23,,,481.53941919998033,None,,001,2021_May_05_1627,list_pa,2021.1.4,59.8292950475548,
,,6,3,0,3,0,,,,,0,24,24,24,,,482.5393390999816,None,,001,2021_May_05_1627,list_pa,2021.1.4,59.8292950475548,
,,5,3,0,3,0,,,,,0,25,25,25,,,483.5402660999971,None,,001,2021_May_05_1627,list_pa,2021.1.4,59.8292950475548,
,,4,3,0,3,0,,,,,0,26,26,26,,,484.53940179999336,None,,001,2021_May_05_1627,list_pa,2021.1.4,59.8292950475548,
,,3,3,0,3,0,,,,,0,27,27,27,,,485.54073939999216,None,,001,2021_May_05_1627,list_pa,2021.1.4,59.8292950475548,
,,2,3,0,3,0,,,,,0,28,28,28,,,486.5410725999973,None,,001,2021_May_05_1627,list_pa,2021.1.4,59.8292950475548,
,,1,3,0,3,0,,,,,0,29,29,29,,,487.5399786999915,None,,001,2021_May_05_1627,list_pa,2021.1.4,59.8292950475548,
,,0,3,0,3,0,,,,,0,30,30,30,,,488.54002119999495,None,,001,2021_May_05_1627,list_pa,2021.1.4,59.8292950475548,
,,,3,0,3,0,,,,,,,,,,,,,,001,2021_May_05_1627,list_pa,2021.1.4,59.8292950475548,
sounds/gauche.ogg,0.7,,4,0,4,0,0,0,0,9,,,,,490.2583206999989,None,,,,001,2021_May_05_1627,list_pa,2021.1.4,59.8292950475548,
sounds/droite.ogg,0.7,,4,0,4,0,0,1,1,32,,,,,491.75852000000305,None,,,,001,2021_May_05_1627,list_pa,2021.1.4,59.8292950475548,
sounds/gauche.ogg,0.7,,4,0,4,0,0,2,2,8,,,,,493.2580008999794,492.5750476999965,,,,001,2021_May_05_1627,list_pa,2021.1.4,59.8292950475548,
sounds/droite.ogg,0.7,,4,0,4,0,0,3,3,45,,,,,494.7602036999888,494.07606979997945,,,,001,2021_May_05_1627,list_pa,2021.1.4,59.8292950475548,
sounds/gauche.ogg,0.7,,4,0,4,0,0,4,4,17,,,,,496.27348449997953,None,,,,001,2021_May_05_1627,list_pa,2021.1.4,59.8292950475548,
sounds/droite.ogg,0.7,,4,0,4,0,0,5,5,33,,,,,497.7765612999792,497.0926108999993,,,,001,2021_May_05_1627,list_pa,2021.1.4,59.8292950475548,
sounds/droite.ogg,0.7,,4,0,4,0,0,6,6,41,,,,,499.2766483000014,498.5921618999855,,,,001,2021_May_05_1627,list_pa,2021.1.4,59.8292950475548,
sounds/gauche.ogg,0.7,,4,0,4,0,0,7,7,19,,,,,500.77683699998306,500.09373439999763,,,,001,2021_May_05_1627,list_pa,2021.1.4,59.8292950475548,
sounds/gauche.ogg,0.7,,4,0,4,0,0,8,8,1,,,,,502.27711979998276,501.5936611999932,,,,001,2021_May_05_1627,list_pa,2021.1.4,59.8292950475548,
sounds/droite.ogg,0.7,,4,0,4,0,0,9,9,49,,,,,503.77684579999186,503.09404659998836,,,,001,2021_May_05_1627,list_pa,2021.1.4,59.8292950475548,
sounds/droite.ogg,0.7,,4,0,4,0,0,10,10,42,,,,,505.27726259999326,504.5927965999872,,,,001,2021_May_05_1627,list_pa,2021.1.4,59.8292950475548,
sounds/droite.ogg,0.7,,4,0,4,0,0,11,11,25,,,,,506.7776220999949,None,,,,001,2021_May_05_1627,list_pa,2021.1.4,59.8292950475548,
sounds/droite.ogg,0.7,,4,0,4,0,0,12,12,35,,,,,508.2782204999821,507.5945786999946,,,,001,2021_May_05_1627,list_pa,2021.1.4,59.8292950475548,
sounds/droite.ogg,0.7,,4,0,4,0,0,13,13,38,,,,,509.7784494999796,509.09537929997896,,,,001,2021_May_05_1627,list_pa,2021.1.4,59.8292950475548,
sounds/gauche.ogg,0.7,,4,0,4,0,0,14,14,21,,,,,511.2791666999983,None,,,,001,2021_May_05_1627,list_pa,2021.1.4,59.8292950475548,
sounds/gauche.ogg,0.7,,4,0,4,0,0,15,15,14,,,,,512.779174700001,512.096097200003,,,,001,2021_May_05_1627,list_pa,2021.1.4,59.8292950475548,
sounds/droite.ogg,0.7,,4,0,4,0,0,16,16,30,,,,,514.2788298999949,513.5964732999855,,,,001,2021_May_05_1627,list_pa,2021.1.4,59.8292950475548,
sounds/gauche.ogg,0.7,,4,0,4,0,0,17,17,10,,,,,515.7803713999747,515.0969432999846,,,,001,2021_May_05_1627,list_pa,2021.1.4,59.8292950475548,
sounds/droite.ogg,0.7,,4,0,4,0,0,18,18,48,,,,,517.2800974999845,516.5972393999982,,,,001,2021_May_05_1627,list_pa,2021.1.4,59.8292950475548,
sounds/gauche.ogg,0.7,,4,0,4,0,0,19,19,5,,,,,518.7790414999763,518.096658399998,,,,001,2021_May_05_1627,list_pa,2021.1.4,59.8292950475548,
sounds/droite.ogg,0.7,,4,0,4,0,0,20,20,39,,,,,520.2805247999786,519.5977010999923,,,,001,2021_May_05_1627,list_pa,2021.1.4,59.8292950475548,
sounds/gauche.ogg,0.7,,4,0,4,0,0,21,21,16,,,,,521.781261999975,521.0971502999892,,,,001,2021_May_05_1627,list_pa,2021.1.4,59.8292950475548,
sounds/gauche.ogg,0.7,,4,0,4,0,0,22,22,24,,,,,523.2808098999958,None,,,,001,2021_May_05_1627,list_pa,2021.1.4,59.8292950475548,
sounds/gauche.ogg,0.7,,4,0,4,0,0,23,23,3,,,,,524.7819380000001,524.0993370999931,,,,001,2021_May_05_1627,list_pa,2021.1.4,59.8292950475548,
sounds/gauche.ogg,0.7,,4,0,4,0,0,24,24,2,,,,,526.2818203999777,525.598098699993,,,,001,2021_May_05_1627,list_pa,2021.1.4,59.8292950475548,
sounds/gauche.ogg,0.7,,4,0,4,0,0,25,25,4,,,,,527.7824742999801,None,,,,001,2021_May_05_1627,list_pa,2021.1.4,59.8292950475548,
sounds/droite.ogg,0.7,,4,0,4,0,0,26,26,37,,,,,529.282686999999,528.599639299995,,,,001,2021_May_05_1627,list_pa,2021.1.4,59.8292950475548,
sounds/droite.ogg,0.7,,4,0,4,0,0,27,27,26,,,,,530.7828293999773,530.0987709999899,,,,001,2021_May_05_1627,list_pa,2021.1.4,59.8292950475548,
sounds/droite.ogg,0.7,,4,0,4,0,0,28,28,43,,,,,532.2830146999913,None,,,,001,2021_May_05_1627,list_pa,2021.1.4,59.8292950475548,
sounds/gauche.ogg,0.7,,4,0,4,0,0,29,29,6,,,,,533.783509699977,533.0998065999884,,,,001,2021_May_05_1627,list_pa,2021.1.4,59.8292950475548,
sounds/gauche.ogg,0.7,,4,0,4,0,0,30,30,23,,,,,535.2839030999749,534.6007795999758,,,,001,2021_May_05_1627,list_pa,2021.1.4,59.8292950475548,
sounds/gauche.ogg,0.7,,4,0,4,0,0,31,31,11,,,,,536.784189500002,536.100680899981,,,,001,2021_May_05_1627,list_pa,2021.1.4,59.8292950475548,
sounds/droite.ogg,0.7,,4,0,4,0,0,32,32,36,,,,,538.2841608999879,537.6009345999919,,,,001,2021_May_05_1627,list_pa,2021.1.4,59.8292950475548,
sounds/gauche.ogg,0.7,,4,0,4,0,0,33,33,15,,,,,539.7849933999823,539.1011230000004,,,,001,2021_May_05_1627,list_pa,2021.1.4,59.8292950475548,
sounds/gauche.ogg,0.7,,4,0,4,0,0,34,34,7,,,,,541.2855187999958,540.6010519999836,,,,001,2021_May_05_1627,list_pa,2021.1.4,59.8292950475548,
sounds/droite.ogg,0.7,,4,0,4,0,0,35,35,31,,,,,542.7860335999867,542.101575299981,,,,001,2021_May_05_1627,list_pa,2021.1.4,59.8292950475548,
sounds/droite.ogg,0.7,,4,0,4,0,0,36,36,28,,,,,544.2857013999892,543.6020192999858,,,,001,2021_May_05_1627,list_pa,2021.1.4,59.8292950475548,
sounds/droite.ogg,0.7,,4,0,4,0,0,37,37,46,,,,,545.7856066999957,None,,,,001,2021_May_05_1627,list_pa,2021.1.4,59.8292950475548,
sounds/droite.ogg,0.7,,4,0,4,0,0,38,38,40,,,,,547.2860082999978,546.6011068999942,,,,001,2021_May_05_1627,list_pa,2021.1.4,59.8292950475548,
sounds/droite.ogg,0.7,,4,0,4,0,0,39,39,29,,,,,548.786643999978,548.1031185000029,,,,001,2021_May_05_1627,list_pa,2021.1.4,59.8292950475548,
sounds/droite.ogg,0.7,,4,0,4,0,0,40,40,34,,,,,550.28713099999,549.6035368999874,,,,001,2021_May_05_1627,list_pa,2021.1.4,59.8292950475548,
sounds/gauche.ogg,0.7,,4,0,4,0,0,41,41,12,,,,,551.786709499982,551.103189299989,,,,001,2021_May_05_1627,list_pa,2021.1.4,59.8292950475548,
sounds/droite.ogg,0.7,,4,0,4,0,0,42,42,27,,,,,553.2875038999773,552.6045049999957,,,,001,2021_May_05_1627,list_pa,2021.1.4,59.8292950475548,
sounds/droite.ogg,0.7,,4,0,4,0,0,43,43,44,,,,,554.7874277999799,554.104717499984,,,,001,2021_May_05_1627,list_pa,2021.1.4,59.8292950475548,
sounds/gauche.ogg,0.7,,4,0,4,0,0,44,44,18,,,,,556.2877243999974,555.6045821000007,,,,001,2021_May_05_1627,list_pa,2021.1.4,59.8292950475548,
sounds/gauche.ogg,0.7,,4,0,4,0,0,45,45,13,,,,,557.7877834999817,557.1052691999939,,,,001,2021_May_05_1627,list_pa,2021.1.4,59.8292950475548,
sounds/gauche.ogg,0.7,,4,0,4,0,0,46,46,0,,,,,559.2885688999959,558.6052667999757,,,,001,2021_May_05_1627,list_pa,2021.1.4,59.8292950475548,
sounds/gauche.ogg,0.7,,4,0,4,0,0,47,47,22,,,,,560.7887106999988,560.1056611999811,,,,001,2021_May_05_1627,list_pa,2021.1.4,59.8292950475548,
sounds/gauche.ogg,0.7,,4,0,4,0,0,48,48,20,,,,,562.2890985999838,561.6064229999902,,,,001,2021_May_05_1627,list_pa,2021.1.4,59.8292950475548,
sounds/droite.ogg,0.7,,4,0,4,0,0,49,49,47,,,,,563.7899251999916,563.1065471000038,,,,001,2021_May_05_1627,list_pa,2021.1.4,59.8292950475548,
,,30,4,0,4,0,,,,,0,0,0,0,,,564.6210514999984,None,,001,2021_May_05_1627,list_pa,2021.1.4,59.8292950475548,
,,29,4,0,4,0,,,,,0,1,1,1,,,565.6245961999812,None,,001,2021_May_05_1627,list_pa,2021.1.4,59.8292950475548,
,,28,4,0,4,0,,,,,0,2,2,2,,,566.6241201999946,None,,001,2021_May_05_1627,list_pa,2021.1.4,59.8292950475548,
,,27,4,0,4,0,,,,,0,3,3,3,,,567.6221753999998,None,,001,2021_May_05_1627,list_pa,2021.1.4,59.8292950475548,
,,26,4,0,4,0,,,,,0,4,4,4,,,568.6241451999813,None,,001,2021_May_05_1627,list_pa,2021.1.4,59.8292950475548,
,,25,4,0,4,0,,,,,0,5,5,5,,,569.9263614999945,None,,001,2021_May_05_1627,list_pa,2021.1.4,59.8292950475548,
,,24,4,0,4,0,,,,,0,6,6,6,,,570.6031559999974,None,,001,2021_May_05_1627,list_pa,2021.1.4,59.8292950475548,
,,23,4,0,4,0,,,,,0,7,7,7,,,571.6250352999778,None,,001,2021_May_05_1627,list_pa,2021.1.4,59.8292950475548,
,,22,4,0,4,0,,,,,0,8,8,8,,,572.6101922999951,None,,001,2021_May_05_1627,list_pa,2021.1.4,59.8292950475548,
,,21,4,0,4,0,,,,,0,9,9,9,,,None,None,,001,2021_May_05_1627,list_pa,2021.1.4,59.8292950475548,
,,20,4,0,4,0,,,,,0,10,10,10,,,None,None,,001,2021_May_05_1627,list_pa,2021.1.4,59.8292950475548,
,,19,4,0,4,0,,,,,0,11,11,11,,,None,None,,001,2021_May_05_1627,list_pa,2021.1.4,59.8292950475548,
,,18,4,0,4,0,,,,,0,12,12,12,,,None,None,,001,2021_May_05_1627,list_pa,2021.1.4,59.8292950475548,
,,17,4,0,4,0,,,,,0,13,13,13,,,None,None,,001,2021_May_05_1627,list_pa,2021.1.4,59.8292950475548,
,,16,4,0,4,0,,,,,0,14,14,14,,,None,None,,001,2021_May_05_1627,list_pa,2021.1.4,59.8292950475548,
,,15,4,0,4,0,,,,,0,15,15,15,,,None,None,,001,2021_May_05_1627,list_pa,2021.1.4,59.8292950475548,
,,14,4,0,4,0,,,,,0,16,16,16,,,None,None,,001,2021_May_05_1627,list_pa,2021.1.4,59.8292950475548,
,,13,4,0,4,0,,,,,0,17,17,17,,,None,None,,001,2021_May_05_1627,list_pa,2021.1.4,59.8292950475548,
,,12,4,0,4,0,,,,,0,18,18,18,,,None,None,,001,2021_May_05_1627,list_pa,2021.1.4,59.8292950475548,
,,11,4,0,4,0,,,,,0,19,19,19,,,None,None,,001,2021_May_05_1627,list_pa,2021.1.4,59.8292950475548,
,,10,4,0,4,0,,,,,0,20,20,20,,,None,None,,001,2021_May_05_1627,list_pa,2021.1.4,59.8292950475548,
,,9,4,0,4,0,,,,,0,21,21,21,,,None,None,,001,2021_May_05_1627,list_pa,2021.1.4,59.8292950475548,
,,8,4,0,4,0,,,,,0,22,22,22,,,None,None,,001,2021_May_05_1627,list_pa,2021.1.4,59.8292950475548,
,,7,4,0,4,0,,,,,0,23,23,23,,,None,None,,001,2021_May_05_1627,list_pa,2021.1.4,59.8292950475548,
,,6,4,0,4,0,,,,,0,24,24,24,,,None,None,,001,2021_May_05_1627,list_pa,2021.1.4,59.8292950475548,
,,5,4,0,4,0,,,,,0,25,25,25,,,None,None,,001,2021_May_05_1627,list_pa,2021.1.4,59.8292950475548,
,,4,4,0,4,0,,,,,0,26,26,26,,,None,None,,001,2021_May_05_1627,list_pa,2021.1.4,59.8292950475548,
,,3,4,0,4,0,,,,,0,27,27,27,,,None,None,,001,2021_May_05_1627,list_pa,2021.1.4,59.8292950475548,
,,2,4,0,4,0,,,,,0,28,28,28,,,None,None,,001,2021_May_05_1627,list_pa,2021.1.4,59.8292950475548,
,,1,4,0,4,0,,,,,0,29,29,29,,,None,None,,001,2021_May_05_1627,list_pa,2021.1.4,59.8292950475548,
,,0,4,0,4,0,,,,,0,30,30,30,,,None,None,,001,2021_May_05_1627,list_pa,2021.1.4,59.8292950475548,
,,,4,0,4,0,,,,,,,,,,,,,,001,2021_May_05_1627,list_pa,2021.1.4,59.8292950475548,
