word_stimuli,isi,countdown,trials.thisRepN,trials.thisTrialN,trials.thisN,trials.thisIndex,trial_loop.thisRepN,trial_loop.thisTrialN,trial_loop.thisN,trial_loop.thisIndex,trials_2.thisRepN,trials_2.thisTrialN,trials_2.thisN,trials_2.thisIndex,sound_exposure.started,sound_exposure.stopped,text.started,text.stopped,participant,session,date,expName,psychopyVersion,frameRate,
sounds/gauche.ogg,0.7,,0,0,0,0,0,0,0,16,,,,,40.49304262000369,None,,,,001,2021_May_03_1524,list_pa,2021.1.4,59.94176058854945,
sounds/droite.ogg,0.7,,0,0,0,0,0,1,1,38,,,,,41.99421502002515,41.308894200017676,,,,001,2021_May_03_1524,list_pa,2021.1.4,59.94176058854945,
sounds/droite.ogg,0.7,,0,0,0,0,0,2,2,25,,,,,43.49489882005146,42.80901830003131,,,,001,2021_May_03_1524,list_pa,2021.1.4,59.94176058854945,
sounds/droite.ogg,0.7,,0,0,0,0,0,3,3,42,,,,,44.995430220023266,44.30994840001222,,,,001,2021_May_03_1524,list_pa,2021.1.4,59.94176058854945,
sounds/gauche.ogg,0.7,,0,0,0,0,0,4,4,21,,,,,46.49491562000476,None,,,,001,2021_May_03_1524,list_pa,2021.1.4,59.94176058854945,
sounds/gauche.ogg,0.7,,0,0,0,0,0,5,5,9,,,,,47.993055020039904,47.3105196999968,,,,001,2021_May_03_1524,list_pa,2021.1.4,59.94176058854945,
sounds/droite.ogg,0.7,,0,0,0,0,0,6,6,47,,,,,49.49573251999682,None,,,,001,2021_May_03_1524,list_pa,2021.1.4,59.94176058854945,
sounds/gauche.ogg,0.7,,0,0,0,0,0,7,7,7,,,,,50.99572842002381,50.31131100002676,,,,001,2021_May_03_1524,list_pa,2021.1.4,59.94176058854945,
sounds/gauche.ogg,0.7,,0,0,0,0,0,8,8,14,,,,,52.49628512001364,51.81168700003764,,,,001,2021_May_03_1524,list_pa,2021.1.4,59.94176058854945,
sounds/gauche.ogg,0.7,,0,0,0,0,0,9,9,10,,,,,53.996429420006464,53.31202489999123,,,,001,2021_May_03_1524,list_pa,2021.1.4,59.94176058854945,
sounds/droite.ogg,0.7,,0,0,0,0,0,10,10,39,,,,,55.49664262000006,54.812309200002346,,,,001,2021_May_03_1524,list_pa,2021.1.4,59.94176058854945,
sounds/gauche.ogg,0.7,,0,0,0,0,0,11,11,0,,,,,56.9971760200453,56.312356500013266,,,,001,2021_May_03_1524,list_pa,2021.1.4,59.94176058854945,
sounds/droite.ogg,0.7,,0,0,0,0,0,12,12,27,,,,,58.497765919996894,57.81280760001391,,,,001,2021_May_03_1524,list_pa,2021.1.4,59.94176058854945,
sounds/gauche.ogg,0.7,,0,0,0,0,0,13,13,11,,,,,59.9981030200026,59.31209600000875,,,,001,2021_May_03_1524,list_pa,2021.1.4,59.94176058854945,
sounds/gauche.ogg,0.7,,0,0,0,0,0,14,14,8,,,,,61.49808562004473,60.81337630003691,,,,001,2021_May_03_1524,list_pa,2021.1.4,59.94176058854945,
sounds/gauche.ogg,0.7,,0,0,0,0,0,15,15,20,,,,,62.999132320040374,62.31300590001047,,,,001,2021_May_03_1524,list_pa,2021.1.4,59.94176058854945,
sounds/droite.ogg,0.7,,0,0,0,0,0,16,16,34,,,,,64.4988047200488,63.813901200017426,,,,001,2021_May_03_1524,list_pa,2021.1.4,59.94176058854945,
sounds/gauche.ogg,0.7,,0,0,0,0,0,17,17,22,,,,,65.99923712002347,None,,,,001,2021_May_03_1524,list_pa,2021.1.4,59.94176058854945,
sounds/droite.ogg,0.7,,0,0,0,0,0,18,18,32,,,,,67.49963422002038,66.81338760000654,,,,001,2021_May_03_1524,list_pa,2021.1.4,59.94176058854945,
sounds/droite.ogg,0.7,,0,0,0,0,0,19,19,37,,,,,69.00001022003126,68.31416609999724,,,,001,2021_May_03_1524,list_pa,2021.1.4,59.94176058854945,
sounds/droite.ogg,0.7,,0,0,0,0,0,20,20,40,,,,,70.50015232000733,None,,,,001,2021_May_03_1524,list_pa,2021.1.4,59.94176058854945,
sounds/droite.ogg,0.7,,0,0,0,0,0,21,21,48,,,,,72.00090692004888,71.31423900002846,,,,001,2021_May_03_1524,list_pa,2021.1.4,59.94176058854945,
sounds/gauche.ogg,0.7,,0,0,0,0,0,22,22,1,,,,,73.50055662000086,None,,,,001,2021_May_03_1524,list_pa,2021.1.4,59.94176058854945,
sounds/gauche.ogg,0.7,,0,0,0,0,0,23,23,24,,,,,75.00166342004668,74.31592160003493,,,,001,2021_May_03_1524,list_pa,2021.1.4,59.94176058854945,
sounds/droite.ogg,0.7,,0,0,0,0,0,24,24,26,,,,,76.50152102001012,75.81643710000208,,,,001,2021_May_03_1524,list_pa,2021.1.4,59.94176058854945,
sounds/gauche.ogg,0.7,,0,0,0,0,0,25,25,18,,,,,78.00212512001163,77.31653519999236,,,,001,2021_May_03_1524,list_pa,2021.1.4,59.94176058854945,
sounds/gauche.ogg,0.7,,0,0,0,0,0,26,26,4,,,,,79.50251572001726,78.81688990001567,,,,001,2021_May_03_1524,list_pa,2021.1.4,59.94176058854945,
sounds/droite.ogg,0.7,,0,0,0,0,0,27,27,28,,,,,81.00224152002484,80.31705160002457,,,,001,2021_May_03_1524,list_pa,2021.1.4,59.94176058854945,
sounds/droite.ogg,0.7,,0,0,0,0,0,28,28,29,,,,,82.50240082001547,81.81753830000525,,,,001,2021_May_03_1524,list_pa,2021.1.4,59.94176058854945,
sounds/droite.ogg,0.7,,0,0,0,0,0,29,29,41,,,,,84.00292752000969,None,,,,001,2021_May_03_1524,list_pa,2021.1.4,59.94176058854945,
sounds/gauche.ogg,0.7,,0,0,0,0,0,30,30,17,,,,,85.5039052200038,84.81761870003538,,,,001,2021_May_03_1524,list_pa,2021.1.4,59.94176058854945,
sounds/gauche.ogg,0.7,,0,0,0,0,0,31,31,15,,,,,87.0034827200463,86.31975280004553,,,,001,2021_May_03_1524,list_pa,2021.1.4,59.94176058854945,
sounds/droite.ogg,0.7,,0,0,0,0,0,32,32,33,,,,,88.50375592003111,None,,,,001,2021_May_03_1524,list_pa,2021.1.4,59.94176058854945,
sounds/droite.ogg,0.7,,0,0,0,0,0,33,33,35,,,,,90.00398192000576,89.31889769999543,,,,001,2021_May_03_1524,list_pa,2021.1.4,59.94176058854945,
sounds/gauche.ogg,0.7,,0,0,0,0,0,34,34,2,,,,,91.50421292001847,90.81941320002079,,,,001,2021_May_03_1524,list_pa,2021.1.4,59.94176058854945,
sounds/gauche.ogg,0.7,,0,0,0,0,0,35,35,12,,,,,93.00553202005104,92.31962240004214,,,,001,2021_May_03_1524,list_pa,2021.1.4,59.94176058854945,
sounds/droite.ogg,0.7,,0,0,0,0,0,36,36,31,,,,,94.50488271999639,93.81989780004369,,,,001,2021_May_03_1524,list_pa,2021.1.4,59.94176058854945,
sounds/gauche.ogg,0.7,,0,0,0,0,0,37,37,19,,,,,96.00506152001908,95.3198406000156,,,,001,2021_May_03_1524,list_pa,2021.1.4,59.94176058854945,
sounds/gauche.ogg,0.7,,0,0,0,0,0,38,38,5,,,,,97.50516252003145,96.81940780003788,,,,001,2021_May_03_1524,list_pa,2021.1.4,59.94176058854945,
sounds/droite.ogg,0.7,,0,0,0,0,0,39,39,44,,,,,99.00559052003082,98.32082449999871,,,,001,2021_May_03_1524,list_pa,2021.1.4,59.94176058854945,
sounds/droite.ogg,0.7,,0,0,0,0,0,40,40,46,,,,,100.50563142005122,99.82131460000528,,,,001,2021_May_03_1524,list_pa,2021.1.4,59.94176058854945,
sounds/gauche.ogg,0.7,,0,0,0,0,0,41,41,13,,,,,102.00666062003002,101.32136649999302,,,,001,2021_May_03_1524,list_pa,2021.1.4,59.94176058854945,
sounds/droite.ogg,0.7,,0,0,0,0,0,42,42,30,,,,,103.50738052004017,102.82210000004852,,,,001,2021_May_03_1524,list_pa,2021.1.4,59.94176058854945,
sounds/gauche.ogg,0.7,,0,0,0,0,0,43,43,23,,,,,105.00672672000947,None,,,,001,2021_May_03_1524,list_pa,2021.1.4,59.94176058854945,
sounds/gauche.ogg,0.7,,0,0,0,0,0,44,44,6,,,,,106.50798762000632,105.82271510001738,,,,001,2021_May_03_1524,list_pa,2021.1.4,59.94176058854945,
sounds/droite.ogg,0.7,,0,0,0,0,0,45,45,49,,,,,108.00783162004082,107.32291680003982,,,,001,2021_May_03_1524,list_pa,2021.1.4,59.94176058854945,
sounds/droite.ogg,0.7,,0,0,0,0,0,46,46,45,,,,,109.50786592001096,None,,,,001,2021_May_03_1524,list_pa,2021.1.4,59.94176058854945,
sounds/gauche.ogg,0.7,,0,0,0,0,0,47,47,3,,,,,111.00839062004816,110.32353560003685,,,,001,2021_May_03_1524,list_pa,2021.1.4,59.94176058854945,
sounds/droite.ogg,0.7,,0,0,0,0,0,48,48,43,,,,,112.50804932001047,111.82372159999795,,,,001,2021_May_03_1524,list_pa,2021.1.4,59.94176058854945,
sounds/droite.ogg,0.7,,0,0,0,0,0,49,49,36,,,,,114.00642432003515,113.32360619999235,,,,001,2021_May_03_1524,list_pa,2021.1.4,59.94176058854945,
,,30,0,0,0,0,,,,,0,0,0,0,,,114.88251850003144,None,,001,2021_May_03_1524,list_pa,2021.1.4,59.94176058854945,
,,29,0,0,0,0,,,,,0,1,1,1,,,115.8410691000172,None,,001,2021_May_03_1524,list_pa,2021.1.4,59.94176058854945,
,,28,0,0,0,0,,,,,0,2,2,2,,,116.84237810003106,None,,001,2021_May_03_1524,list_pa,2021.1.4,59.94176058854945,
,,27,0,0,0,0,,,,,0,3,3,3,,,117.84159590001218,None,,001,2021_May_03_1524,list_pa,2021.1.4,59.94176058854945,
,,26,0,0,0,0,,,,,0,4,4,4,,,118.8420141999959,None,,001,2021_May_03_1524,list_pa,2021.1.4,59.94176058854945,
,,25,0,0,0,0,,,,,0,5,5,5,,,119.84164950001286,None,,001,2021_May_03_1524,list_pa,2021.1.4,59.94176058854945,
,,24,0,0,0,0,,,,,0,6,6,6,,,120.84244020003825,None,,001,2021_May_03_1524,list_pa,2021.1.4,59.94176058854945,
,,23,0,0,0,0,,,,,0,7,7,7,,,121.84237130003748,None,,001,2021_May_03_1524,list_pa,2021.1.4,59.94176058854945,
,,22,0,0,0,0,,,,,0,8,8,8,,,122.82516940002097,None,,001,2021_May_03_1524,list_pa,2021.1.4,59.94176058854945,
,,21,0,0,0,0,,,,,0,9,9,9,,,123.84304090001388,None,,001,2021_May_03_1524,list_pa,2021.1.4,59.94176058854945,
,,20,0,0,0,0,,,,,0,10,10,10,,,124.84299120004289,None,,001,2021_May_03_1524,list_pa,2021.1.4,59.94176058854945,
,,19,0,0,0,0,,,,,0,11,11,11,,,125.84350220003398,None,,001,2021_May_03_1524,list_pa,2021.1.4,59.94176058854945,
,,18,0,0,0,0,,,,,0,12,12,12,,,126.8434441999998,None,,001,2021_May_03_1524,list_pa,2021.1.4,59.94176058854945,
,,17,0,0,0,0,,,,,0,13,13,13,,,127.84623570000986,None,,001,2021_May_03_1524,list_pa,2021.1.4,59.94176058854945,
,,16,0,0,0,0,,,,,0,14,14,14,,,128.84390590002295,None,,001,2021_May_03_1524,list_pa,2021.1.4,59.94176058854945,
,,15,0,0,0,0,,,,,0,15,15,15,,,129.8440341000096,None,,001,2021_May_03_1524,list_pa,2021.1.4,59.94176058854945,
,,14,0,0,0,0,,,,,0,16,16,16,,,130.84462390001863,None,,001,2021_May_03_1524,list_pa,2021.1.4,59.94176058854945,
,,13,0,0,0,0,,,,,0,17,17,17,,,131.8275299000088,None,,001,2021_May_03_1524,list_pa,2021.1.4,59.94176058854945,
,,12,0,0,0,0,,,,,0,18,18,18,,,132.82769540004665,None,,001,2021_May_03_1524,list_pa,2021.1.4,59.94176058854945,
,,11,0,0,0,0,,,,,0,19,19,19,,,133.8276461000205,None,,001,2021_May_03_1524,list_pa,2021.1.4,59.94176058854945,
,,10,0,0,0,0,,,,,0,20,20,20,,,134.82788550003897,None,,001,2021_May_03_1524,list_pa,2021.1.4,59.94176058854945,
,,9,0,0,0,0,,,,,0,21,21,21,,,135.82804320001742,None,,001,2021_May_03_1524,list_pa,2021.1.4,59.94176058854945,
,,8,0,0,0,0,,,,,0,22,22,22,,,136.82822000002488,None,,001,2021_May_03_1524,list_pa,2021.1.4,59.94176058854945,
,,7,0,0,0,0,,,,,0,23,23,23,,,137.8285382000031,None,,001,2021_May_03_1524,list_pa,2021.1.4,59.94176058854945,
,,6,0,0,0,0,,,,,0,24,24,24,,,138.8286955000367,None,,001,2021_May_03_1524,list_pa,2021.1.4,59.94176058854945,
,,5,0,0,0,0,,,,,0,25,25,25,,,139.8291889000102,None,,001,2021_May_03_1524,list_pa,2021.1.4,59.94176058854945,
,,4,0,0,0,0,,,,,0,26,26,26,,,140.8297410000232,None,,001,2021_May_03_1524,list_pa,2021.1.4,59.94176058854945,
,,3,0,0,0,0,,,,,0,27,27,27,,,141.82976900000358,None,,001,2021_May_03_1524,list_pa,2021.1.4,59.94176058854945,
,,2,0,0,0,0,,,,,0,28,28,28,,,142.8297298999969,None,,001,2021_May_03_1524,list_pa,2021.1.4,59.94176058854945,
,,1,0,0,0,0,,,,,0,29,29,29,,,143.8302217000164,None,,001,2021_May_03_1524,list_pa,2021.1.4,59.94176058854945,
,,0,0,0,0,0,,,,,0,30,30,30,,,144.830289000005,None,,001,2021_May_03_1524,list_pa,2021.1.4,59.94176058854945,
,,,0,0,0,0,,,,,,,,,,,,,,001,2021_May_03_1524,list_pa,2021.1.4,59.94176058854945,
sounds/droite.ogg,0.7,,1,0,1,0,0,0,0,43,,,,,146.53200612000654,None,,,,001,2021_May_03_1524,list_pa,2021.1.4,59.94176058854945,
sounds/gauche.ogg,0.7,,1,0,1,0,0,1,1,3,,,,,148.03303062000776,None,,,,001,2021_May_03_1524,list_pa,2021.1.4,59.94176058854945,
sounds/gauche.ogg,0.7,,1,0,1,0,0,2,2,6,,,,,149.5328608199954,148.84744450001745,,,,001,2021_May_03_1524,list_pa,2021.1.4,59.94176058854945,
sounds/droite.ogg,0.7,,1,0,1,0,0,3,3,28,,,,,151.0335154200322,150.34804140002234,,,,001,2021_May_03_1524,list_pa,2021.1.4,59.94176058854945,
sounds/droite.ogg,0.7,,1,0,1,0,0,4,4,39,,,,,152.53401462004985,151.84823550004512,,,,001,2021_May_03_1524,list_pa,2021.1.4,59.94176058854945,
sounds/gauche.ogg,0.7,,1,0,1,0,0,5,5,10,,,,,154.03365842001512,153.34831200004555,,,,001,2021_May_03_1524,list_pa,2021.1.4,59.94176058854945,
sounds/droite.ogg,0.7,,1,0,1,0,0,6,6,35,,,,,155.53358282002154,154.84877490001963,,,,001,2021_May_03_1524,list_pa,2021.1.4,59.94176058854945,
sounds/droite.ogg,0.7,,1,0,1,0,0,7,7,33,,,,,157.03451542002148,156.34906550002052,,,,001,2021_May_03_1524,list_pa,2021.1.4,59.94176058854945,
sounds/gauche.ogg,0.7,,1,0,1,0,0,8,8,23,,,,,158.53454112004255,157.85095980000915,,,,001,2021_May_03_1524,list_pa,2021.1.4,59.94176058854945,
sounds/droite.ogg,0.7,,1,0,1,0,0,9,9,45,,,,,160.03473032002802,159.3498215000145,,,,001,2021_May_03_1524,list_pa,2021.1.4,59.94176058854945,
sounds/droite.ogg,0.7,,1,0,1,0,0,10,10,36,,,,,161.5320168200298,160.84856200002832,,,,001,2021_May_03_1524,list_pa,2021.1.4,59.94176058854945,
sounds/droite.ogg,0.7,,1,0,1,0,0,11,11,31,,,,,163.0157613200019,162.33199850004166,,,,001,2021_May_03_1524,list_pa,2021.1.4,59.94176058854945,
sounds/droite.ogg,0.7,,1,0,1,0,0,12,12,49,,,,,164.49918692004866,163.81584910000674,,,,001,2021_May_03_1524,list_pa,2021.1.4,59.94176058854945,
sounds/droite.ogg,0.7,,1,0,1,0,0,13,13,42,,,,,166.00255832005058,None,,,,001,2021_May_03_1524,list_pa,2021.1.4,59.94176058854945,
sounds/gauche.ogg,0.7,,1,0,1,0,0,14,14,22,,,,,167.50278922000433,166.81801430002088,,,,001,2021_May_03_1524,list_pa,2021.1.4,59.94176058854945,
sounds/gauche.ogg,0.7,,1,0,1,0,0,15,15,14,,,,,169.0037528200075,None,,,,001,2021_May_03_1524,list_pa,2021.1.4,59.94176058854945,
sounds/gauche.ogg,0.7,,1,0,1,0,0,16,16,16,,,,,170.50363812000722,169.81893330003368,,,,001,2021_May_03_1524,list_pa,2021.1.4,59.94176058854945,
sounds/gauche.ogg,0.7,,1,0,1,0,0,17,17,21,,,,,172.00410812003537,171.31902190000983,,,,001,2021_May_03_1524,list_pa,2021.1.4,59.94176058854945,
sounds/droite.ogg,0.7,,1,0,1,0,0,18,18,25,,,,,173.50394182004965,172.81955940002808,,,,001,2021_May_03_1524,list_pa,2021.1.4,59.94176058854945,
sounds/gauche.ogg,0.7,,1,0,1,0,0,19,19,0,,,,,175.00468082003061,174.3195671000285,,,,001,2021_May_03_1524,list_pa,2021.1.4,59.94176058854945,
sounds/gauche.ogg,0.7,,1,0,1,0,0,20,20,5,,,,,176.50470612004864,175.8199769000057,,,,001,2021_May_03_1524,list_pa,2021.1.4,59.94176058854945,
sounds/droite.ogg,0.7,,1,0,1,0,0,21,21,41,,,,,178.00488002003402,177.3201249000267,,,,001,2021_May_03_1524,list_pa,2021.1.4,59.94176058854945,
sounds/gauche.ogg,0.7,,1,0,1,0,0,22,22,8,,,,,179.52324952003545,None,,,,001,2021_May_03_1524,list_pa,2021.1.4,59.94176058854945,
sounds/gauche.ogg,0.7,,1,0,1,0,0,23,23,20,,,,,181.02286732003557,180.33736730000237,,,,001,2021_May_03_1524,list_pa,2021.1.4,59.94176058854945,
sounds/gauche.ogg,0.7,,1,0,1,0,0,24,24,13,,,,,182.52284122001146,181.83800180000253,,,,001,2021_May_03_1524,list_pa,2021.1.4,59.94176058854945,
sounds/droite.ogg,0.7,,1,0,1,0,0,25,25,32,,,,,184.02343452004715,None,,,,001,2021_May_03_1524,list_pa,2021.1.4,59.94176058854945,
sounds/droite.ogg,0.7,,1,0,1,0,0,26,26,47,,,,,185.52292341999708,184.83849480003119,,,,001,2021_May_03_1524,list_pa,2021.1.4,59.94176058854945,
sounds/droite.ogg,0.7,,1,0,1,0,0,27,27,37,,,,,187.0241906200419,186.33834930002922,,,,001,2021_May_03_1524,list_pa,2021.1.4,59.94176058854945,
sounds/droite.ogg,0.7,,1,0,1,0,0,28,28,40,,,,,188.52381332002113,None,,,,001,2021_May_03_1524,list_pa,2021.1.4,59.94176058854945,
sounds/gauche.ogg,0.7,,1,0,1,0,0,29,29,12,,,,,190.02508562004658,189.33896060002735,,,,001,2021_May_03_1524,list_pa,2021.1.4,59.94176058854945,
sounds/gauche.ogg,0.7,,1,0,1,0,0,30,30,17,,,,,191.52335332001093,190.83959930000128,,,,001,2021_May_03_1524,list_pa,2021.1.4,59.94176058854945,
sounds/gauche.ogg,0.7,,1,0,1,0,0,31,31,11,,,,,193.02489052001619,192.34002420003526,,,,001,2021_May_03_1524,list_pa,2021.1.4,59.94176058854945,
sounds/droite.ogg,0.7,,1,0,1,0,0,32,32,29,,,,,194.52496222003828,193.84010140004102,,,,001,2021_May_03_1524,list_pa,2021.1.4,59.94176058854945,
sounds/gauche.ogg,0.7,,1,0,1,0,0,33,33,2,,,,,196.025280620018,195.34053879999556,,,,001,2021_May_03_1524,list_pa,2021.1.4,59.94176058854945,
sounds/gauche.ogg,0.7,,1,0,1,0,0,34,34,24,,,,,197.52558122003683,196.8409371000016,,,,001,2021_May_03_1524,list_pa,2021.1.4,59.94176058854945,
sounds/gauche.ogg,0.7,,1,0,1,0,0,35,35,7,,,,,199.02682752003892,198.34115570003632,,,,001,2021_May_03_1524,list_pa,2021.1.4,59.94176058854945,
sounds/droite.ogg,0.7,,1,0,1,0,0,36,36,44,,,,,200.52605922000947,199.84148649999406,,,,001,2021_May_03_1524,list_pa,2021.1.4,59.94176058854945,
sounds/gauche.ogg,0.7,,1,0,1,0,0,37,37,1,,,,,202.02652992004295,201.34213360003196,,,,001,2021_May_03_1524,list_pa,2021.1.4,59.94176058854945,
sounds/gauche.ogg,0.7,,1,0,1,0,0,38,38,18,,,,,203.52673292001708,202.84203370002797,,,,001,2021_May_03_1524,list_pa,2021.1.4,59.94176058854945,
sounds/droite.ogg,0.7,,1,0,1,0,0,39,39,48,,,,,205.02699862000298,None,,,,001,2021_May_03_1524,list_pa,2021.1.4,59.94176058854945,
sounds/droite.ogg,0.7,,1,0,1,0,0,40,40,34,,,,,206.5288544200477,205.84291790000862,,,,001,2021_May_03_1524,list_pa,2021.1.4,59.94176058854945,
sounds/droite.ogg,0.7,,1,0,1,0,0,41,41,30,,,,,208.0444121200009,None,,,,001,2021_May_03_1524,list_pa,2021.1.4,59.94176058854945,
sounds/gauche.ogg,0.7,,1,0,1,0,0,42,42,9,,,,,209.5447728200117,208.85977650003042,,,,001,2021_May_03_1524,list_pa,2021.1.4,59.94176058854945,
sounds/droite.ogg,0.7,,1,0,1,0,0,43,43,27,,,,,211.0454439199995,210.35981970001012,,,,001,2021_May_03_1524,list_pa,2021.1.4,59.94176058854945,
sounds/gauche.ogg,0.7,,1,0,1,0,0,44,44,4,,,,,212.5451870200224,211.86038650001865,,,,001,2021_May_03_1524,list_pa,2021.1.4,59.94176058854945,
sounds/droite.ogg,0.7,,1,0,1,0,0,45,45,46,,,,,214.0459068200318,213.3603139000479,,,,001,2021_May_03_1524,list_pa,2021.1.4,59.94176058854945,
sounds/droite.ogg,0.7,,1,0,1,0,0,46,46,26,,,,,215.54549122001043,214.8614157999982,,,,001,2021_May_03_1524,list_pa,2021.1.4,59.94176058854945,
sounds/droite.ogg,0.7,,1,0,1,0,0,47,47,38,,,,,217.04621072001754,216.36172490002355,,,,001,2021_May_03_1524,list_pa,2021.1.4,59.94176058854945,
sounds/gauche.ogg,0.7,,1,0,1,0,0,48,48,15,,,,,218.5465906199999,217.8614500000258,,,,001,2021_May_03_1524,list_pa,2021.1.4,59.94176058854945,
sounds/gauche.ogg,0.7,,1,0,1,0,0,49,49,19,,,,,220.04668231999966,None,,,,001,2021_May_03_1524,list_pa,2021.1.4,59.94176058854945,
,,30,1,0,1,0,,,,,0,0,0,0,,,220.89585940004326,None,,001,2021_May_03_1524,list_pa,2021.1.4,59.94176058854945,
,,29,1,0,1,0,,,,,0,1,1,1,,,221.87943760002963,None,,001,2021_May_03_1524,list_pa,2021.1.4,59.94176058854945,
,,28,1,0,1,0,,,,,0,2,2,2,,,222.8794796000002,None,,001,2021_May_03_1524,list_pa,2021.1.4,59.94176058854945,
,,27,1,0,1,0,,,,,0,3,3,3,,,223.87948340002913,None,,001,2021_May_03_1524,list_pa,2021.1.4,59.94176058854945,
,,26,1,0,1,0,,,,,0,4,4,4,,,224.8798378999927,None,,001,2021_May_03_1524,list_pa,2021.1.4,59.94176058854945,
,,25,1,0,1,0,,,,,0,5,5,5,,,225.8798889000318,None,,001,2021_May_03_1524,list_pa,2021.1.4,59.94176058854945,
,,24,1,0,1,0,,,,,0,6,6,6,,,226.88056489999872,None,,001,2021_May_03_1524,list_pa,2021.1.4,59.94176058854945,
,,23,1,0,1,0,,,,,0,7,7,7,,,227.8796910000383,None,,001,2021_May_03_1524,list_pa,2021.1.4,59.94176058854945,
,,22,1,0,1,0,,,,,0,8,8,8,,,228.88041909999447,None,,001,2021_May_03_1524,list_pa,2021.1.4,59.94176058854945,
,,21,1,0,1,0,,,,,0,9,9,9,,,229.88103980000596,None,,001,2021_May_03_1524,list_pa,2021.1.4,59.94176058854945,
,,20,1,0,1,0,,,,,0,10,10,10,,,230.88117370003602,None,,001,2021_May_03_1524,list_pa,2021.1.4,59.94176058854945,
,,19,1,0,1,0,,,,,0,11,11,11,,,231.88132600003155,None,,001,2021_May_03_1524,list_pa,2021.1.4,59.94176058854945,
,,18,1,0,1,0,,,,,0,12,12,12,,,232.88144369999645,None,,001,2021_May_03_1524,list_pa,2021.1.4,59.94176058854945,
,,17,1,0,1,0,,,,,0,13,13,13,,,233.88157000002684,None,,001,2021_May_03_1524,list_pa,2021.1.4,59.94176058854945,
,,16,1,0,1,0,,,,,0,14,14,14,,,234.88192549999803,None,,001,2021_May_03_1524,list_pa,2021.1.4,59.94176058854945,
,,15,1,0,1,0,,,,,0,15,15,15,,,235.8654657000443,None,,001,2021_May_03_1524,list_pa,2021.1.4,59.94176058854945,
,,14,1,0,1,0,,,,,0,16,16,16,,,236.8659697000403,None,,001,2021_May_03_1524,list_pa,2021.1.4,59.94176058854945,
,,13,1,0,1,0,,,,,0,17,17,17,,,237.86588290001964,None,,001,2021_May_03_1524,list_pa,2021.1.4,59.94176058854945,
,,12,1,0,1,0,,,,,0,18,18,18,,,238.88282250001794,None,,001,2021_May_03_1524,list_pa,2021.1.4,59.94176058854945,
,,11,1,0,1,0,,,,,0,19,19,19,,,239.866510700027,None,,001,2021_May_03_1524,list_pa,2021.1.4,59.94176058854945,
,,10,1,0,1,0,,,,,0,20,20,20,,,240.86615040001925,None,,001,2021_May_03_1524,list_pa,2021.1.4,59.94176058854945,
,,9,1,0,1,0,,,,,0,21,21,21,,,241.866796300048,None,,001,2021_May_03_1524,list_pa,2021.1.4,59.94176058854945,
,,8,1,0,1,0,,,,,0,22,22,22,,,242.86724980000872,None,,001,2021_May_03_1524,list_pa,2021.1.4,59.94176058854945,
,,7,1,0,1,0,,,,,0,23,23,23,,,243.86693540000124,None,,001,2021_May_03_1524,list_pa,2021.1.4,59.94176058854945,
,,6,1,0,1,0,,,,,0,24,24,24,,,244.8661293000332,None,,001,2021_May_03_1524,list_pa,2021.1.4,59.94176058854945,
,,5,1,0,1,0,,,,,0,25,25,25,,,245.86729290004587,None,,001,2021_May_03_1524,list_pa,2021.1.4,59.94176058854945,
,,4,1,0,1,0,,,,,0,26,26,26,,,246.8689414000255,None,,001,2021_May_03_1524,list_pa,2021.1.4,59.94176058854945,
,,3,1,0,1,0,,,,,0,27,27,27,,,247.86761890002526,None,,001,2021_May_03_1524,list_pa,2021.1.4,59.94176058854945,
,,2,1,0,1,0,,,,,0,28,28,28,,,248.86765329999616,None,,001,2021_May_03_1524,list_pa,2021.1.4,59.94176058854945,
,,1,1,0,1,0,,,,,0,29,29,29,,,249.86788800003706,None,,001,2021_May_03_1524,list_pa,2021.1.4,59.94176058854945,
,,0,1,0,1,0,,,,,0,30,30,30,,,250.86832860001596,None,,001,2021_May_03_1524,list_pa,2021.1.4,59.94176058854945,
,,,1,0,1,0,,,,,,,,,,,,,,001,2021_May_03_1524,list_pa,2021.1.4,59.94176058854945,
sounds/gauche.ogg,0.7,,2,0,2,0,0,0,0,8,,,,,252.58630652002756,None,,,,001,2021_May_03_1524,list_pa,2021.1.4,59.94176058854945,
sounds/droite.ogg,0.7,,2,0,2,0,0,1,1,46,,,,,254.0871426200494,253.40124150004704,,,,001,2021_May_03_1524,list_pa,2021.1.4,59.94176058854945,
sounds/gauche.ogg,0.7,,2,0,2,0,0,2,2,0,,,,,255.58712312001734,254.90254670003196,,,,001,2021_May_03_1524,list_pa,2021.1.4,59.94176058854945,
sounds/gauche.ogg,0.7,,2,0,2,0,0,3,3,15,,,,,257.08832202000775,256.4028317000484,,,,001,2021_May_03_1524,list_pa,2021.1.4,59.94176058854945,
sounds/droite.ogg,0.7,,2,0,2,0,0,4,4,32,,,,,258.58786792004247,257.9033419000334,,,,001,2021_May_03_1524,list_pa,2021.1.4,59.94176058854945,
sounds/droite.ogg,0.7,,2,0,2,0,0,5,5,36,,,,,260.0883511199965,None,,,,001,2021_May_03_1524,list_pa,2021.1.4,59.94176058854945,
sounds/gauche.ogg,0.7,,2,0,2,0,0,6,6,21,,,,,261.5882632200257,260.90444790001493,,,,001,2021_May_03_1524,list_pa,2021.1.4,59.94176058854945,
sounds/gauche.ogg,0.7,,2,0,2,0,0,7,7,12,,,,,263.088515920029,262.4040390000446,,,,001,2021_May_03_1524,list_pa,2021.1.4,59.94176058854945,
sounds/droite.ogg,0.7,,2,0,2,0,0,8,8,38,,,,,264.58902502000564,None,,,,001,2021_May_03_1524,list_pa,2021.1.4,59.94176058854945,
sounds/droite.ogg,0.7,,2,0,2,0,0,9,9,41,,,,,266.08981072005116,265.4043989999918,,,,001,2021_May_03_1524,list_pa,2021.1.4,59.94176058854945,
sounds/droite.ogg,0.7,,2,0,2,0,0,10,10,31,,,,,267.5899793199962,266.90472779999254,,,,001,2021_May_03_1524,list_pa,2021.1.4,59.94176058854945,
sounds/gauche.ogg,0.7,,2,0,2,0,0,11,11,9,,,,,269.0903539199964,268.4054080999922,,,,001,2021_May_03_1524,list_pa,2021.1.4,59.94176058854945,
sounds/gauche.ogg,0.7,,2,0,2,0,0,12,12,20,,,,,270.5906390200136,269.9052048000158,,,,001,2021_May_03_1524,list_pa,2021.1.4,59.94176058854945,
sounds/gauche.ogg,0.7,,2,0,2,0,0,13,13,11,,,,,272.09113622001604,271.40599860000657,,,,001,2021_May_03_1524,list_pa,2021.1.4,59.94176058854945,
sounds/gauche.ogg,0.7,,2,0,2,0,0,14,14,19,,,,,273.59155302004655,272.90623310004594,,,,001,2021_May_03_1524,list_pa,2021.1.4,59.94176058854945,
sounds/droite.ogg,0.7,,2,0,2,0,0,15,15,42,,,,,275.0921128200018,274.4066301000421,,,,001,2021_May_03_1524,list_pa,2021.1.4,59.94176058854945,
sounds/gauche.ogg,0.7,,2,0,2,0,0,16,16,18,,,,,276.59116392005234,275.9069740000414,,,,001,2021_May_03_1524,list_pa,2021.1.4,59.94176058854945,
sounds/droite.ogg,0.7,,2,0,2,0,0,17,17,48,,,,,278.092993520014,None,,,,001,2021_May_03_1524,list_pa,2021.1.4,59.94176058854945,
sounds/droite.ogg,0.7,,2,0,2,0,0,18,18,40,,,,,279.5930284200469,278.9068518000422,,,,001,2021_May_03_1524,list_pa,2021.1.4,59.94176058854945,
sounds/gauche.ogg,0.7,,2,0,2,0,0,19,19,1,,,,,281.09277522003975,280.4074779000366,,,,001,2021_May_03_1524,list_pa,2021.1.4,59.94176058854945,
sounds/gauche.ogg,0.7,,2,0,2,0,0,20,20,13,,,,,282.593714320031,None,,,,001,2021_May_03_1524,list_pa,2021.1.4,59.94176058854945,
sounds/gauche.ogg,0.7,,2,0,2,0,0,21,21,17,,,,,284.0930584200425,283.4077326999977,,,,001,2021_May_03_1524,list_pa,2021.1.4,59.94176058854945,
sounds/droite.ogg,0.7,,2,0,2,0,0,22,22,30,,,,,285.5931544200168,284.90878290002,,,,001,2021_May_03_1524,list_pa,2021.1.4,59.94176058854945,
sounds/droite.ogg,0.7,,2,0,2,0,0,23,23,37,,,,,287.0944633200299,286.4087040000013,,,,001,2021_May_03_1524,list_pa,2021.1.4,59.94176058854945,
sounds/droite.ogg,0.7,,2,0,2,0,0,24,24,45,,,,,288.61133801999966,None,,,,001,2021_May_03_1524,list_pa,2021.1.4,59.94176058854945,
sounds/gauche.ogg,0.7,,2,0,2,0,0,25,25,14,,,,,290.1117105200421,289.42612940003164,,,,001,2021_May_03_1524,list_pa,2021.1.4,59.94176058854945,
sounds/gauche.ogg,0.7,,2,0,2,0,0,26,26,22,,,,,291.61185132000827,290.92641790001653,,,,001,2021_May_03_1524,list_pa,2021.1.4,59.94176058854945,
sounds/gauche.ogg,0.7,,2,0,2,0,0,27,27,4,,,,,293.1115772200166,None,,,,001,2021_May_03_1524,list_pa,2021.1.4,59.94176058854945,
sounds/gauche.ogg,0.7,,2,0,2,0,0,28,28,23,,,,,294.6126553200185,293.92697510001017,,,,001,2021_May_03_1524,list_pa,2021.1.4,59.94176058854945,
sounds/gauche.ogg,0.7,,2,0,2,0,0,29,29,2,,,,,296.11229282005223,295.4272068000282,,,,001,2021_May_03_1524,list_pa,2021.1.4,59.94176058854945,
sounds/gauche.ogg,0.7,,2,0,2,0,0,30,30,5,,,,,297.6134941200027,None,,,,001,2021_May_03_1524,list_pa,2021.1.4,59.94176058854945,
sounds/gauche.ogg,0.7,,2,0,2,0,0,31,31,10,,,,,299.11316082002594,298.42787810001755,,,,001,2021_May_03_1524,list_pa,2021.1.4,59.94176058854945,
sounds/droite.ogg,0.7,,2,0,2,0,0,32,32,47,,,,,300.61352772002573,299.9294724999927,,,,001,2021_May_03_1524,list_pa,2021.1.4,59.94176058854945,
sounds/gauche.ogg,0.7,,2,0,2,0,0,33,33,3,,,,,302.1132088200422,301.42851739999605,,,,001,2021_May_03_1524,list_pa,2021.1.4,59.94176058854945,
sounds/droite.ogg,0.7,,2,0,2,0,0,34,34,28,,,,,303.61414311999687,302.9287339000148,,,,001,2021_May_03_1524,list_pa,2021.1.4,59.94176058854945,
sounds/droite.ogg,0.7,,2,0,2,0,0,35,35,43,,,,,305.1142990200198,304.4292225000099,,,,001,2021_May_03_1524,list_pa,2021.1.4,59.94176058854945,
sounds/droite.ogg,0.7,,2,0,2,0,0,36,36,33,,,,,306.6130519200116,305.92883879999863,,,,001,2021_May_03_1524,list_pa,2021.1.4,59.94176058854945,
sounds/droite.ogg,0.7,,2,0,2,0,0,37,37,25,,,,,308.1147767200484,307.42982660001144,,,,001,2021_May_03_1524,list_pa,2021.1.4,59.94176058854945,
sounds/droite.ogg,0.7,,2,0,2,0,0,38,38,44,,,,,309.614892019995,None,,,,001,2021_May_03_1524,list_pa,2021.1.4,59.94176058854945,
sounds/droite.ogg,0.7,,2,0,2,0,0,39,39,26,,,,,311.11525232000275,310.43036520003807,,,,001,2021_May_03_1524,list_pa,2021.1.4,59.94176058854945,
sounds/droite.ogg,0.7,,2,0,2,0,0,40,40,49,,,,,312.6155137200141,311.9308106999961,,,,001,2021_May_03_1524,list_pa,2021.1.4,59.94176058854945,
sounds/droite.ogg,0.7,,2,0,2,0,0,41,41,27,,,,,314.1159422200173,None,,,,001,2021_May_03_1524,list_pa,2021.1.4,59.94176058854945,
sounds/gauche.ogg,0.7,,2,0,2,0,0,42,42,16,,,,,315.61612812003585,314.9314016000135,,,,001,2021_May_03_1524,list_pa,2021.1.4,59.94176058854945,
sounds/gauche.ogg,0.7,,2,0,2,0,0,43,43,7,,,,,317.11635372000745,316.43152770004235,,,,001,2021_May_03_1524,list_pa,2021.1.4,59.94176058854945,
sounds/gauche.ogg,0.7,,2,0,2,0,0,44,44,24,,,,,318.616075020039,317.9319730999996,,,,001,2021_May_03_1524,list_pa,2021.1.4,59.94176058854945,
sounds/droite.ogg,0.7,,2,0,2,0,0,45,45,35,,,,,320.1173652200261,319.4326523000491,,,,001,2021_May_03_1524,list_pa,2021.1.4,59.94176058854945,
sounds/droite.ogg,0.7,,2,0,2,0,0,46,46,39,,,,,321.6174148199963,320.9325236000004,,,,001,2021_May_03_1524,list_pa,2021.1.4,59.94176058854945,
sounds/droite.ogg,0.7,,2,0,2,0,0,47,47,34,,,,,323.11766102000837,322.43327280000085,,,,001,2021_May_03_1524,list_pa,2021.1.4,59.94176058854945,
sounds/droite.ogg,0.7,,2,0,2,0,0,48,48,29,,,,,324.61831492003984,323.9335936999996,,,,001,2021_May_03_1524,list_pa,2021.1.4,59.94176058854945,
sounds/gauche.ogg,0.7,,2,0,2,0,0,49,49,6,,,,,326.1190552200307,325.43317530001514,,,,001,2021_May_03_1524,list_pa,2021.1.4,59.94176058854945,
,,30,2,0,2,0,,,,,0,0,0,0,,,326.96579450002173,None,,001,2021_May_03_1524,list_pa,2021.1.4,59.94176058854945,
,,29,2,0,2,0,,,,,0,1,1,1,,,327.9507936000009,None,,001,2021_May_03_1524,list_pa,2021.1.4,59.94176058854945,
,,28,2,0,2,0,,,,,0,2,2,2,,,328.95079530001385,None,,001,2021_May_03_1524,list_pa,2021.1.4,59.94176058854945,
,,27,2,0,2,0,,,,,0,3,3,3,,,329.9509193000267,None,,001,2021_May_03_1524,list_pa,2021.1.4,59.94176058854945,
,,26,2,0,2,0,,,,,0,4,4,4,,,330.95154720003484,None,,001,2021_May_03_1524,list_pa,2021.1.4,59.94176058854945,
,,25,2,0,2,0,,,,,0,5,5,5,,,331.9517543000402,None,,001,2021_May_03_1524,list_pa,2021.1.4,59.94176058854945,
,,24,2,0,2,0,,,,,0,6,6,6,,,332.9520821000333,None,,001,2021_May_03_1524,list_pa,2021.1.4,59.94176058854945,
,,23,2,0,2,0,,,,,0,7,7,7,,,333.95121190004284,None,,001,2021_May_03_1524,list_pa,2021.1.4,59.94176058854945,
,,22,2,0,2,0,,,,,0,8,8,8,,,334.9519286000286,None,,001,2021_May_03_1524,list_pa,2021.1.4,59.94176058854945,
,,21,2,0,2,0,,,,,0,9,9,9,,,335.95238410000456,None,,001,2021_May_03_1524,list_pa,2021.1.4,59.94176058854945,
,,20,2,0,2,0,,,,,0,10,10,10,,,336.95256340003107,None,,001,2021_May_03_1524,list_pa,2021.1.4,59.94176058854945,
,,19,2,0,2,0,,,,,0,11,11,11,,,337.9529768000357,None,,001,2021_May_03_1524,list_pa,2021.1.4,59.94176058854945,
,,18,2,0,2,0,,,,,0,12,12,12,,,338.95294710004237,None,,001,2021_May_03_1524,list_pa,2021.1.4,59.94176058854945,
,,17,2,0,2,0,,,,,0,13,13,13,,,339.93649890000233,None,,001,2021_May_03_1524,list_pa,2021.1.4,59.94176058854945,
,,16,2,0,2,0,,,,,0,14,14,14,,,340.9368577999994,None,,001,2021_May_03_1524,list_pa,2021.1.4,59.94176058854945,
,,15,2,0,2,0,,,,,0,15,15,15,,,341.93658400001004,None,,001,2021_May_03_1524,list_pa,2021.1.4,59.94176058854945,
,,14,2,0,2,0,,,,,0,16,16,16,,,342.9367686000187,None,,001,2021_May_03_1524,list_pa,2021.1.4,59.94176058854945,
,,13,2,0,2,0,,,,,0,17,17,17,,,343.93819070002064,None,,001,2021_May_03_1524,list_pa,2021.1.4,59.94176058854945,
,,12,2,0,2,0,,,,,0,18,18,18,,,344.9370723000029,None,,001,2021_May_03_1524,list_pa,2021.1.4,59.94176058854945,
,,11,2,0,2,0,,,,,0,19,19,19,,,345.9374191000243,None,,001,2021_May_03_1524,list_pa,2021.1.4,59.94176058854945,
,,10,2,0,2,0,,,,,0,20,20,20,,,346.9376953000319,None,,001,2021_May_03_1524,list_pa,2021.1.4,59.94176058854945,
,,9,2,0,2,0,,,,,0,21,21,21,,,347.93765949999215,None,,001,2021_May_03_1524,list_pa,2021.1.4,59.94176058854945,
,,8,2,0,2,0,,,,,0,22,22,22,,,348.9381049000076,None,,001,2021_May_03_1524,list_pa,2021.1.4,59.94176058854945,
,,7,2,0,2,0,,,,,0,23,23,23,,,349.9386233999976,None,,001,2021_May_03_1524,list_pa,2021.1.4,59.94176058854945,
,,6,2,0,2,0,,,,,0,24,24,24,,,350.93848110002,None,,001,2021_May_03_1524,list_pa,2021.1.4,59.94176058854945,
,,5,2,0,2,0,,,,,0,25,25,25,,,351.938983,None,,001,2021_May_03_1524,list_pa,2021.1.4,59.94176058854945,
,,4,2,0,2,0,,,,,0,26,26,26,,,352.93885269999737,None,,001,2021_May_03_1524,list_pa,2021.1.4,59.94176058854945,
,,3,2,0,2,0,,,,,0,27,27,27,,,353.93939950002823,None,,001,2021_May_03_1524,list_pa,2021.1.4,59.94176058854945,
,,2,2,0,2,0,,,,,0,28,28,28,,,354.9397232000483,None,,001,2021_May_03_1524,list_pa,2021.1.4,59.94176058854945,
,,1,2,0,2,0,,,,,0,29,29,29,,,355.9398232999956,None,,001,2021_May_03_1524,list_pa,2021.1.4,59.94176058854945,
,,0,2,0,2,0,,,,,0,30,30,30,,,356.94011900003534,None,,001,2021_May_03_1524,list_pa,2021.1.4,59.94176058854945,
,,,2,0,2,0,,,,,,,,,,,,,,001,2021_May_03_1524,list_pa,2021.1.4,59.94176058854945,
sounds/gauche.ogg,0.7,,3,0,3,0,0,0,0,9,,,,,358.65849972002906,None,,,,001,2021_May_03_1524,list_pa,2021.1.4,59.94176058854945,
sounds/gauche.ogg,0.7,,3,0,3,0,0,1,1,18,,,,,360.158786520001,359.4737643999979,,,,001,2021_May_03_1524,list_pa,2021.1.4,59.94176058854945,
sounds/droite.ogg,0.7,,3,0,3,0,0,2,2,30,,,,,361.659228420048,360.97439530002885,,,,001,2021_May_03_1524,list_pa,2021.1.4,59.94176058854945,
sounds/droite.ogg,0.7,,3,0,3,0,0,3,3,44,,,,,363.1593647200381,362.4738939999952,,,,001,2021_May_03_1524,list_pa,2021.1.4,59.94176058854945,
sounds/gauche.ogg,0.7,,3,0,3,0,0,4,4,21,,,,,364.6598812200129,363.9744554000208,,,,001,2021_May_03_1524,list_pa,2021.1.4,59.94176058854945,
sounds/gauche.ogg,0.7,,3,0,3,0,0,5,5,1,,,,,366.1599867200013,365.4755340000265,,,,001,2021_May_03_1524,list_pa,2021.1.4,59.94176058854945,
sounds/droite.ogg,0.7,,3,0,3,0,0,6,6,34,,,,,367.6607565200422,366.9758622000227,,,,001,2021_May_03_1524,list_pa,2021.1.4,59.94176058854945,
sounds/droite.ogg,0.7,,3,0,3,0,0,7,7,32,,,,,369.1612742200261,368.4764003000455,,,,001,2021_May_03_1524,list_pa,2021.1.4,59.94176058854945,
sounds/gauche.ogg,0.7,,3,0,3,0,0,8,8,7,,,,,370.6612107200082,369.97601490002126,,,,001,2021_May_03_1524,list_pa,2021.1.4,59.94176058854945,
sounds/gauche.ogg,0.7,,3,0,3,0,0,9,9,16,,,,,372.1613402200048,None,,,,001,2021_May_03_1524,list_pa,2021.1.4,59.94176058854945,
sounds/droite.ogg,0.7,,3,0,3,0,0,10,10,25,,,,,373.6617618200136,372.97650910000084,,,,001,2021_May_03_1524,list_pa,2021.1.4,59.94176058854945,
sounds/gauche.ogg,0.7,,3,0,3,0,0,11,11,13,,,,,375.16210032003,374.47649670002284,,,,001,2021_May_03_1524,list_pa,2021.1.4,59.94176058854945,
sounds/droite.ogg,0.7,,3,0,3,0,0,12,12,35,,,,,376.6629836200038,None,,,,001,2021_May_03_1524,list_pa,2021.1.4,59.94176058854945,
sounds/droite.ogg,0.7,,3,0,3,0,0,13,13,40,,,,,378.16254072000737,377.47717070003273,,,,001,2021_May_03_1524,list_pa,2021.1.4,59.94176058854945,
sounds/droite.ogg,0.7,,3,0,3,0,0,14,14,26,,,,,379.66273712004767,378.9774448000244,,,,001,2021_May_03_1524,list_pa,2021.1.4,59.94176058854945,
sounds/gauche.ogg,0.7,,3,0,3,0,0,15,15,22,,,,,381.16365482005057,380.47776179999346,,,,001,2021_May_03_1524,list_pa,2021.1.4,59.94176058854945,
sounds/droite.ogg,0.7,,3,0,3,0,0,16,16,43,,,,,382.664476920024,381.9781527000014,,,,001,2021_May_03_1524,list_pa,2021.1.4,59.94176058854945,
sounds/gauche.ogg,0.7,,3,0,3,0,0,17,17,6,,,,,384.16389112004543,383.47833020001417,,,,001,2021_May_03_1524,list_pa,2021.1.4,59.94176058854945,
sounds/gauche.ogg,0.7,,3,0,3,0,0,18,18,5,,,,,385.6637403200031,384.97891910001636,,,,001,2021_May_03_1524,list_pa,2021.1.4,59.94176058854945,
sounds/gauche.ogg,0.7,,3,0,3,0,0,19,19,19,,,,,387.1643007200211,386.4795148000121,,,,001,2021_May_03_1524,list_pa,2021.1.4,59.94176058854945,
sounds/gauche.ogg,0.7,,3,0,3,0,0,20,20,12,,,,,388.68158512002555,None,,,,001,2021_May_03_1524,list_pa,2021.1.4,59.94176058854945,
sounds/gauche.ogg,0.7,,3,0,3,0,0,21,21,8,,,,,390.18208912002154,389.49636190000456,,,,001,2021_May_03_1524,list_pa,2021.1.4,59.94176058854945,
sounds/gauche.ogg,0.7,,3,0,3,0,0,22,22,11,,,,,391.68272452002856,None,,,,001,2021_May_03_1524,list_pa,2021.1.4,59.94176058854945,
sounds/droite.ogg,0.7,,3,0,3,0,0,23,23,39,,,,,393.18285392002434,392.49689980002586,,,,001,2021_May_03_1524,list_pa,2021.1.4,59.94176058854945,
sounds/droite.ogg,0.7,,3,0,3,0,0,24,24,42,,,,,394.68262901999987,393.99710680003045,,,,001,2021_May_03_1524,list_pa,2021.1.4,59.94176058854945,
sounds/gauche.ogg,0.7,,3,0,3,0,0,25,25,24,,,,,396.1823572200257,395.49744320003083,,,,001,2021_May_03_1524,list_pa,2021.1.4,59.94176058854945,
sounds/droite.ogg,0.7,,3,0,3,0,0,26,26,33,,,,,397.68243602004367,396.9976976000471,,,,001,2021_May_03_1524,list_pa,2021.1.4,59.94176058854945,
sounds/gauche.ogg,0.7,,3,0,3,0,0,27,27,2,,,,,399.1837686200044,398.4968829000136,,,,001,2021_May_03_1524,list_pa,2021.1.4,59.94176058854945,
sounds/droite.ogg,0.7,,3,0,3,0,0,28,28,37,,,,,400.68369292001006,399.9983677000273,,,,001,2021_May_03_1524,list_pa,2021.1.4,59.94176058854945,
sounds/droite.ogg,0.7,,3,0,3,0,0,29,29,47,,,,,402.1840038200491,401.4992354999995,,,,001,2021_May_03_1524,list_pa,2021.1.4,59.94176058854945,
sounds/droite.ogg,0.7,,3,0,3,0,0,30,30,27,,,,,403.68413612000876,402.9992996000219,,,,001,2021_May_03_1524,list_pa,2021.1.4,59.94176058854945,
sounds/gauche.ogg,0.7,,3,0,3,0,0,31,31,15,,,,,405.18436822002985,404.4998848999967,,,,001,2021_May_03_1524,list_pa,2021.1.4,59.94176058854945,
sounds/gauche.ogg,0.7,,3,0,3,0,0,32,32,23,,,,,406.68474282003007,405.9998344000196,,,,001,2021_May_03_1524,list_pa,2021.1.4,59.94176058854945,
sounds/droite.ogg,0.7,,3,0,3,0,0,33,33,46,,,,,408.1850134199951,None,,,,001,2021_May_03_1524,list_pa,2021.1.4,59.94176058854945,
sounds/gauche.ogg,0.7,,3,0,3,0,0,34,34,0,,,,,409.6851939200307,409.0007394000422,,,,001,2021_May_03_1524,list_pa,2021.1.4,59.94176058854945,
sounds/gauche.ogg,0.7,,3,0,3,0,0,35,35,20,,,,,411.1854407200473,410.5015190000413,,,,001,2021_May_03_1524,list_pa,2021.1.4,59.94176058854945,
sounds/droite.ogg,0.7,,3,0,3,0,0,36,36,38,,,,,412.6858280200278,None,,,,001,2021_May_03_1524,list_pa,2021.1.4,59.94176058854945,
sounds/droite.ogg,0.7,,3,0,3,0,0,37,37,36,,,,,414.18657622002064,413.50144409999484,,,,001,2021_May_03_1524,list_pa,2021.1.4,59.94176058854945,
sounds/droite.ogg,0.7,,3,0,3,0,0,38,38,41,,,,,415.6866940200445,415.00132840004517,,,,001,2021_May_03_1524,list_pa,2021.1.4,59.94176058854945,
sounds/gauche.ogg,0.7,,3,0,3,0,0,39,39,14,,,,,417.1871297200443,416.5018659000052,,,,001,2021_May_03_1524,list_pa,2021.1.4,59.94176058854945,
sounds/droite.ogg,0.7,,3,0,3,0,0,40,40,49,,,,,418.6861039200332,418.0023239000002,,,,001,2021_May_03_1524,list_pa,2021.1.4,59.94176058854945,
sounds/droite.ogg,0.7,,3,0,3,0,0,41,41,48,,,,,420.1876550200279,419.50292090000585,,,,001,2021_May_03_1524,list_pa,2021.1.4,59.94176058854945,
sounds/droite.ogg,0.7,,3,0,3,0,0,42,42,28,,,,,421.6878237200319,421.00293150002835,,,,001,2021_May_03_1524,list_pa,2021.1.4,59.94176058854945,
sounds/gauche.ogg,0.7,,3,0,3,0,0,43,43,10,,,,,423.18823231999994,422.5029691000236,,,,001,2021_May_03_1524,list_pa,2021.1.4,59.94176058854945,
sounds/droite.ogg,0.7,,3,0,3,0,0,44,44,45,,,,,424.68843362001934,424.00366520002717,,,,001,2021_May_03_1524,list_pa,2021.1.4,59.94176058854945,
sounds/gauche.ogg,0.7,,3,0,3,0,0,45,45,17,,,,,426.18912132001714,425.50376410002355,,,,001,2021_May_03_1524,list_pa,2021.1.4,59.94176058854945,
sounds/droite.ogg,0.7,,3,0,3,0,0,46,46,29,,,,,427.68924212000564,427.0043249000446,,,,001,2021_May_03_1524,list_pa,2021.1.4,59.94176058854945,
sounds/gauche.ogg,0.7,,3,0,3,0,0,47,47,4,,,,,429.1903004200314,428.5046692000469,,,,001,2021_May_03_1524,list_pa,2021.1.4,59.94176058854945,
sounds/droite.ogg,0.7,,3,0,3,0,0,48,48,31,,,,,430.7060084200231,None,,,,001,2021_May_03_1524,list_pa,2021.1.4,59.94176058854945,
sounds/gauche.ogg,0.7,,3,0,3,0,0,49,49,3,,,,,432.20631542003247,431.52175590000115,,,,001,2021_May_03_1524,list_pa,2021.1.4,59.94176058854945,
,,30,3,0,3,0,,,,,0,0,0,0,,,433.0544839000213,None,,001,2021_May_03_1524,list_pa,2021.1.4,59.94176058854945,
,,29,3,0,3,0,,,,,0,1,1,1,,,434.03893740003696,None,,001,2021_May_03_1524,list_pa,2021.1.4,59.94176058854945,
,,28,3,0,3,0,,,,,0,2,2,2,,,435.0551090000081,None,,001,2021_May_03_1524,list_pa,2021.1.4,59.94176058854945,
,,27,3,0,3,0,,,,,0,3,3,3,,,436.03883500001393,None,,001,2021_May_03_1524,list_pa,2021.1.4,59.94176058854945,
,,26,3,0,3,0,,,,,0,4,4,4,,,437.0554393000202,None,,001,2021_May_03_1524,list_pa,2021.1.4,59.94176058854945,
,,25,3,0,3,0,,,,,0,5,5,5,,,438.05494350002846,None,,001,2021_May_03_1524,list_pa,2021.1.4,59.94176058854945,
,,24,3,0,3,0,,,,,0,6,6,6,,,439.0566441999981,None,,001,2021_May_03_1524,list_pa,2021.1.4,59.94176058854945,
,,23,3,0,3,0,,,,,0,7,7,7,,,440.0577379000024,None,,001,2021_May_03_1524,list_pa,2021.1.4,59.94176058854945,
,,22,3,0,3,0,,,,,0,8,8,8,,,441.0567731000483,None,,001,2021_May_03_1524,list_pa,2021.1.4,59.94176058854945,
,,21,3,0,3,0,,,,,0,9,9,9,,,442.057049199997,None,,001,2021_May_03_1524,list_pa,2021.1.4,59.94176058854945,
,,20,3,0,3,0,,,,,0,10,10,10,,,443.0572284000227,None,,001,2021_May_03_1524,list_pa,2021.1.4,59.94176058854945,
,,19,3,0,3,0,,,,,0,11,11,11,,,444.05733149999287,None,,001,2021_May_03_1524,list_pa,2021.1.4,59.94176058854945,
,,18,3,0,3,0,,,,,0,12,12,12,,,445.05749820003984,None,,001,2021_May_03_1524,list_pa,2021.1.4,59.94176058854945,
,,17,3,0,3,0,,,,,0,13,13,13,,,446.05769430001965,None,,001,2021_May_03_1524,list_pa,2021.1.4,59.94176058854945,
,,16,3,0,3,0,,,,,0,14,14,14,,,447.05784180003684,None,,001,2021_May_03_1524,list_pa,2021.1.4,59.94176058854945,
,,15,3,0,3,0,,,,,0,15,15,15,,,448.0584174999967,None,,001,2021_May_03_1524,list_pa,2021.1.4,59.94176058854945,
,,14,3,0,3,0,,,,,0,16,16,16,,,449.058769700001,None,,001,2021_May_03_1524,list_pa,2021.1.4,59.94176058854945,
,,13,3,0,3,0,,,,,0,17,17,17,,,450.04209030000493,None,,001,2021_May_03_1524,list_pa,2021.1.4,59.94176058854945,
,,12,3,0,3,0,,,,,0,18,18,18,,,451.0424944999977,None,,001,2021_May_03_1524,list_pa,2021.1.4,59.94176058854945,
,,11,3,0,3,0,,,,,0,19,19,19,,,452.0426006000489,None,,001,2021_May_03_1524,list_pa,2021.1.4,59.94176058854945,
,,10,3,0,3,0,,,,,0,20,20,20,,,453.04260690003866,None,,001,2021_May_03_1524,list_pa,2021.1.4,59.94176058854945,
,,9,3,0,3,0,,,,,0,21,21,21,,,454.0262216000119,None,,001,2021_May_03_1524,list_pa,2021.1.4,59.94176058854945,
,,8,3,0,3,0,,,,,0,22,22,22,,,455.043579899997,None,,001,2021_May_03_1524,list_pa,2021.1.4,59.94176058854945,
,,7,3,0,3,0,,,,,0,23,23,23,,,456.04335049999645,None,,001,2021_May_03_1524,list_pa,2021.1.4,59.94176058854945,
,,6,3,0,3,0,,,,,0,24,24,24,,,457.04352230002405,None,,001,2021_May_03_1524,list_pa,2021.1.4,59.94176058854945,
,,5,3,0,3,0,,,,,0,25,25,25,,,458.0263952999958,None,,001,2021_May_03_1524,list_pa,2021.1.4,59.94176058854945,
,,4,3,0,3,0,,,,,0,26,26,26,,,459.0430081000086,None,,001,2021_May_03_1524,list_pa,2021.1.4,59.94176058854945,
,,3,3,0,3,0,,,,,0,27,27,27,,,460.0441935000126,None,,001,2021_May_03_1524,list_pa,2021.1.4,59.94176058854945,
,,2,3,0,3,0,,,,,0,28,28,28,,,461.04460459999973,None,,001,2021_May_03_1524,list_pa,2021.1.4,59.94176058854945,
,,1,3,0,3,0,,,,,0,29,29,29,,,462.0451314999955,None,,001,2021_May_03_1524,list_pa,2021.1.4,59.94176058854945,
,,0,3,0,3,0,,,,,0,30,30,30,,,463.0455097000231,None,,001,2021_May_03_1524,list_pa,2021.1.4,59.94176058854945,
,,,3,0,3,0,,,,,,,,,,,,,,001,2021_May_03_1524,list_pa,2021.1.4,59.94176058854945,
sounds/gauche.ogg,0.7,,4,0,4,0,0,0,0,0,,,,,464.7636630200315,None,,,,001,2021_May_03_1524,list_pa,2021.1.4,59.94176058854945,
sounds/gauche.ogg,0.7,,4,0,4,0,0,1,1,9,,,,,466.26351832003564,None,,,,001,2021_May_03_1524,list_pa,2021.1.4,59.94176058854945,
sounds/gauche.ogg,0.7,,4,0,4,0,0,2,2,7,,,,,467.7633528199978,467.07894690003013,,,,001,2021_May_03_1524,list_pa,2021.1.4,59.94176058854945,
sounds/droite.ogg,0.7,,4,0,4,0,0,3,3,41,,,,,469.2643223200459,468.57924960000673,,,,001,2021_May_03_1524,list_pa,2021.1.4,59.94176058854945,
sounds/gauche.ogg,0.7,,4,0,4,0,0,4,4,24,,,,,470.7642912200419,470.07979620003607,,,,001,2021_May_03_1524,list_pa,2021.1.4,59.94176058854945,
sounds/gauche.ogg,0.7,,4,0,4,0,0,5,5,8,,,,,472.26474652001633,471.57990830001654,,,,001,2021_May_03_1524,list_pa,2021.1.4,59.94176058854945,
sounds/gauche.ogg,0.7,,4,0,4,0,0,6,6,17,,,,,473.764925320039,473.0803927000379,,,,001,2021_May_03_1524,list_pa,2021.1.4,59.94176058854945,
sounds/gauche.ogg,0.7,,4,0,4,0,0,7,7,5,,,,,475.26528572004753,474.58019940002123,,,,001,2021_May_03_1524,list_pa,2021.1.4,59.94176058854945,
sounds/droite.ogg,0.7,,4,0,4,0,0,8,8,26,,,,,476.7658837200026,476.0805948000052,,,,001,2021_May_03_1524,list_pa,2021.1.4,59.94176058854945,
sounds/gauche.ogg,0.7,,4,0,4,0,0,9,9,15,,,,,478.2657652200316,477.58113340003183,,,,001,2021_May_03_1524,list_pa,2021.1.4,59.94176058854945,
sounds/droite.ogg,0.7,,4,0,4,0,0,10,10,31,,,,,479.76603752000955,479.08090360002825,,,,001,2021_May_03_1524,list_pa,2021.1.4,59.94176058854945,
sounds/gauche.ogg,0.7,,4,0,4,0,0,11,11,23,,,,,481.26663802004185,480.5819185000146,,,,001,2021_May_03_1524,list_pa,2021.1.4,59.94176058854945,
sounds/gauche.ogg,0.7,,4,0,4,0,0,12,12,18,,,,,482.76717102002584,None,,,,001,2021_May_03_1524,list_pa,2021.1.4,59.94176058854945,
sounds/droite.ogg,0.7,,4,0,4,0,0,13,13,39,,,,,484.26728432001545,483.5824264000403,,,,001,2021_May_03_1524,list_pa,2021.1.4,59.94176058854945,
sounds/droite.ogg,0.7,,4,0,4,0,0,14,14,47,,,,,485.76826362002174,485.08246910001617,,,,001,2021_May_03_1524,list_pa,2021.1.4,59.94176058854945,
sounds/droite.ogg,0.7,,4,0,4,0,0,15,15,44,,,,,487.2676855200436,486.58324770000763,,,,001,2021_May_03_1524,list_pa,2021.1.4,59.94176058854945,
sounds/gauche.ogg,0.7,,4,0,4,0,0,16,16,2,,,,,488.7678544200491,488.0832320000045,,,,001,2021_May_03_1524,list_pa,2021.1.4,59.94176058854945,
sounds/droite.ogg,0.7,,4,0,4,0,0,17,17,30,,,,,490.26852312001864,489.58357170003,,,,001,2021_May_03_1524,list_pa,2021.1.4,59.94176058854945,
sounds/gauche.ogg,0.7,,4,0,4,0,0,18,18,21,,,,,491.7694865200203,491.0837771000224,,,,001,2021_May_03_1524,list_pa,2021.1.4,59.94176058854945,
sounds/droite.ogg,0.7,,4,0,4,0,0,19,19,38,,,,,493.26920722004724,492.5838082000264,,,,001,2021_May_03_1524,list_pa,2021.1.4,59.94176058854945,
sounds/gauche.ogg,0.7,,4,0,4,0,0,20,20,13,,,,,494.76942472001537,494.08490790001815,,,,001,2021_May_03_1524,list_pa,2021.1.4,59.94176058854945,
sounds/droite.ogg,0.7,,4,0,4,0,0,21,21,33,,,,,496.269707120012,495.58543620002456,,,,001,2021_May_03_1524,list_pa,2021.1.4,59.94176058854945,
sounds/droite.ogg,0.7,,4,0,4,0,0,22,22,35,,,,,497.7699803199968,497.0857408000156,,,,001,2021_May_03_1524,list_pa,2021.1.4,59.94176058854945,
sounds/gauche.ogg,0.7,,4,0,4,0,0,23,23,11,,,,,499.27040252001024,None,,,,001,2021_May_03_1524,list_pa,2021.1.4,59.94176058854945,
sounds/droite.ogg,0.7,,4,0,4,0,0,24,24,46,,,,,500.77070882001425,None,,,,001,2021_May_03_1524,list_pa,2021.1.4,59.94176058854945,
sounds/droite.ogg,0.7,,4,0,4,0,0,25,25,25,,,,,502.2709627200267,None,,,,001,2021_May_03_1524,list_pa,2021.1.4,59.94176058854945,
sounds/gauche.ogg,0.7,,4,0,4,0,0,26,26,6,,,,,503.77138661999487,503.0852915000287,,,,001,2021_May_03_1524,list_pa,2021.1.4,59.94176058854945,
sounds/gauche.ogg,0.7,,4,0,4,0,0,27,27,22,,,,,505.2716331200092,504.58663930004695,,,,001,2021_May_03_1524,list_pa,2021.1.4,59.94176058854945,
sounds/droite.ogg,0.7,,4,0,4,0,0,28,28,37,,,,,506.77203322002896,506.08658629999263,,,,001,2021_May_03_1524,list_pa,2021.1.4,59.94176058854945,
sounds/droite.ogg,0.7,,4,0,4,0,0,29,29,32,,,,,508.2727552199969,507.58720440004254,,,,001,2021_May_03_1524,list_pa,2021.1.4,59.94176058854945,
sounds/droite.ogg,0.7,,4,0,4,0,0,30,30,48,,,,,509.772773020016,509.0870122000342,,,,001,2021_May_03_1524,list_pa,2021.1.4,59.94176058854945,
sounds/droite.ogg,0.7,,4,0,4,0,0,31,31,49,,,,,511.27309092005015,510.5874210000038,,,,001,2021_May_03_1524,list_pa,2021.1.4,59.94176058854945,
sounds/gauche.ogg,0.7,,4,0,4,0,0,32,32,4,,,,,512.7729205200333,512.0877076000324,,,,001,2021_May_03_1524,list_pa,2021.1.4,59.94176058854945,
sounds/gauche.ogg,0.7,,4,0,4,0,0,33,33,14,,,,,514.2737233200344,513.5879517000285,,,,001,2021_May_03_1524,list_pa,2021.1.4,59.94176058854945,
sounds/droite.ogg,0.7,,4,0,4,0,0,34,34,43,,,,,515.7734595200047,515.0884709000238,,,,001,2021_May_03_1524,list_pa,2021.1.4,59.94176058854945,
sounds/droite.ogg,0.7,,4,0,4,0,0,35,35,28,,,,,517.2740950200125,None,,,,001,2021_May_03_1524,list_pa,2021.1.4,59.94176058854945,
sounds/droite.ogg,0.7,,4,0,4,0,0,36,36,40,,,,,518.7744041200378,518.0891590000247,,,,001,2021_May_03_1524,list_pa,2021.1.4,59.94176058854945,
sounds/gauche.ogg,0.7,,4,0,4,0,0,37,37,19,,,,,520.2744360200479,519.5891151000396,,,,001,2021_May_03_1524,list_pa,2021.1.4,59.94176058854945,
sounds/droite.ogg,0.7,,4,0,4,0,0,38,38,36,,,,,521.774932520045,None,,,,001,2021_May_03_1524,list_pa,2021.1.4,59.94176058854945,
sounds/gauche.ogg,0.7,,4,0,4,0,0,39,39,3,,,,,523.2745917200111,522.5902594000218,,,,001,2021_May_03_1524,list_pa,2021.1.4,59.94176058854945,
sounds/gauche.ogg,0.7,,4,0,4,0,0,40,40,20,,,,,524.7756779200165,524.0905099000083,,,,001,2021_May_03_1524,list_pa,2021.1.4,59.94176058854945,
sounds/droite.ogg,0.7,,4,0,4,0,0,41,41,45,,,,,526.2755604199949,525.590696600033,,,,001,2021_May_03_1524,list_pa,2021.1.4,59.94176058854945,
sounds/droite.ogg,0.7,,4,0,4,0,0,42,42,29,,,,,527.7929025200312,None,,,,001,2021_May_03_1524,list_pa,2021.1.4,59.94176058854945,
sounds/droite.ogg,0.7,,4,0,4,0,0,43,43,42,,,,,529.2936848200509,528.6069177000318,,,,001,2021_May_03_1524,list_pa,2021.1.4,59.94176058854945,
sounds/gauche.ogg,0.7,,4,0,4,0,0,44,44,1,,,,,530.7936426200206,530.1085708000464,,,,001,2021_May_03_1524,list_pa,2021.1.4,59.94176058854945,
sounds/gauche.ogg,0.7,,4,0,4,0,0,45,45,16,,,,,532.2941565200338,531.6081665999955,,,,001,2021_May_03_1524,list_pa,2021.1.4,59.94176058854945,
sounds/droite.ogg,0.7,,4,0,4,0,0,46,46,34,,,,,533.7940116200364,533.1087577000144,,,,001,2021_May_03_1524,list_pa,2021.1.4,59.94176058854945,
sounds/droite.ogg,0.7,,4,0,4,0,0,47,47,27,,,,,535.2942193200463,534.6092580000404,,,,001,2021_May_03_1524,list_pa,2021.1.4,59.94176058854945,
sounds/gauche.ogg,0.7,,4,0,4,0,0,48,48,12,,,,,536.7941653200426,None,,,,001,2021_May_03_1524,list_pa,2021.1.4,59.94176058854945,
sounds/gauche.ogg,0.7,,4,0,4,0,0,49,49,10,,,,,538.2942912200117,537.6095925000263,,,,001,2021_May_03_1524,list_pa,2021.1.4,59.94176058854945,
,,30,4,0,4,0,,,,,0,0,0,0,,,539.1437679000082,None,,001,2021_May_03_1524,list_pa,2021.1.4,59.94176058854945,
,,29,4,0,4,0,,,,,0,1,1,1,,,540.1267435000045,None,,001,2021_May_03_1524,list_pa,2021.1.4,59.94176058854945,
,,28,4,0,4,0,,,,,0,2,2,2,,,541.1270471000462,None,,001,2021_May_03_1524,list_pa,2021.1.4,59.94176058854945,
,,27,4,0,4,0,,,,,0,3,3,3,,,542.1272306000465,None,,001,2021_May_03_1524,list_pa,2021.1.4,59.94176058854945,
,,26,4,0,4,0,,,,,0,4,4,4,,,543.1276789000258,None,,001,2021_May_03_1524,list_pa,2021.1.4,59.94176058854945,
,,25,4,0,4,0,,,,,0,5,5,5,,,544.1276181000285,None,,001,2021_May_03_1524,list_pa,2021.1.4,59.94176058854945,
,,24,4,0,4,0,,,,,0,6,6,6,,,545.1078725000261,None,,001,2021_May_03_1524,list_pa,2021.1.4,59.94176058854945,
,,23,4,0,4,0,,,,,0,7,7,7,,,546.1106054999982,None,,001,2021_May_03_1524,list_pa,2021.1.4,59.94176058854945,
,,22,4,0,4,0,,,,,0,8,8,8,,,547.1279961999971,None,,001,2021_May_03_1524,list_pa,2021.1.4,59.94176058854945,
,,21,4,0,4,0,,,,,0,9,9,9,,,None,None,,001,2021_May_03_1524,list_pa,2021.1.4,59.94176058854945,
,,20,4,0,4,0,,,,,0,10,10,10,,,None,None,,001,2021_May_03_1524,list_pa,2021.1.4,59.94176058854945,
,,19,4,0,4,0,,,,,0,11,11,11,,,None,None,,001,2021_May_03_1524,list_pa,2021.1.4,59.94176058854945,
,,18,4,0,4,0,,,,,0,12,12,12,,,None,None,,001,2021_May_03_1524,list_pa,2021.1.4,59.94176058854945,
,,17,4,0,4,0,,,,,0,13,13,13,,,None,None,,001,2021_May_03_1524,list_pa,2021.1.4,59.94176058854945,
,,16,4,0,4,0,,,,,0,14,14,14,,,None,None,,001,2021_May_03_1524,list_pa,2021.1.4,59.94176058854945,
,,15,4,0,4,0,,,,,0,15,15,15,,,None,None,,001,2021_May_03_1524,list_pa,2021.1.4,59.94176058854945,
,,14,4,0,4,0,,,,,0,16,16,16,,,None,None,,001,2021_May_03_1524,list_pa,2021.1.4,59.94176058854945,
,,13,4,0,4,0,,,,,0,17,17,17,,,None,None,,001,2021_May_03_1524,list_pa,2021.1.4,59.94176058854945,
,,12,4,0,4,0,,,,,0,18,18,18,,,None,None,,001,2021_May_03_1524,list_pa,2021.1.4,59.94176058854945,
,,11,4,0,4,0,,,,,0,19,19,19,,,None,None,,001,2021_May_03_1524,list_pa,2021.1.4,59.94176058854945,
,,10,4,0,4,0,,,,,0,20,20,20,,,None,None,,001,2021_May_03_1524,list_pa,2021.1.4,59.94176058854945,
,,9,4,0,4,0,,,,,0,21,21,21,,,None,None,,001,2021_May_03_1524,list_pa,2021.1.4,59.94176058854945,
,,8,4,0,4,0,,,,,0,22,22,22,,,None,None,,001,2021_May_03_1524,list_pa,2021.1.4,59.94176058854945,
,,7,4,0,4,0,,,,,0,23,23,23,,,None,None,,001,2021_May_03_1524,list_pa,2021.1.4,59.94176058854945,
,,6,4,0,4,0,,,,,0,24,24,24,,,None,None,,001,2021_May_03_1524,list_pa,2021.1.4,59.94176058854945,
,,5,4,0,4,0,,,,,0,25,25,25,,,None,None,,001,2021_May_03_1524,list_pa,2021.1.4,59.94176058854945,
,,4,4,0,4,0,,,,,0,26,26,26,,,None,None,,001,2021_May_03_1524,list_pa,2021.1.4,59.94176058854945,
,,3,4,0,4,0,,,,,0,27,27,27,,,None,None,,001,2021_May_03_1524,list_pa,2021.1.4,59.94176058854945,
,,2,4,0,4,0,,,,,0,28,28,28,,,None,None,,001,2021_May_03_1524,list_pa,2021.1.4,59.94176058854945,
,,1,4,0,4,0,,,,,0,29,29,29,,,None,None,,001,2021_May_03_1524,list_pa,2021.1.4,59.94176058854945,
,,0,4,0,4,0,,,,,0,30,30,30,,,None,None,,001,2021_May_03_1524,list_pa,2021.1.4,59.94176058854945,
,,,4,0,4,0,,,,,,,,,,,,,,001,2021_May_03_1524,list_pa,2021.1.4,59.94176058854945,
