word_stimuli,isi,countdown,trials.thisRepN,trials.thisTrialN,trials.thisN,trials.thisIndex,trial_loop.thisRepN,trial_loop.thisTrialN,trial_loop.thisN,trial_loop.thisIndex,trials_2.thisRepN,trials_2.thisTrialN,trials_2.thisN,trials_2.thisIndex,sound_exposure.started,sound_exposure.stopped,text.started,text.stopped,participant,session,date,expName,psychopyVersion,frameRate,
sounds/gauche.ogg,0.7,,0,0,0,0,0,0,0,23,,,,,41.54428735000547,None,,,,001,2021_May_05_1431,list_pa,2021.1.4,59.90613905448617,
sounds/gauche.ogg,0.7,,0,0,0,0,0,1,1,13,,,,,43.04576194999972,42.3616311000078,,,,001,2021_May_05_1431,list_pa,2021.1.4,59.90613905448617,
sounds/droite.ogg,0.7,,0,0,0,0,0,2,2,36,,,,,44.56232664999552,43.87745559998439,,,,001,2021_May_05_1431,list_pa,2021.1.4,59.90613905448617,
sounds/gauche.ogg,0.7,,0,0,0,0,0,3,3,20,,,,,46.06293334998772,45.3787297999952,,,,001,2021_May_05_1431,list_pa,2021.1.4,59.90613905448617,
sounds/droite.ogg,0.7,,0,0,0,0,0,4,4,35,,,,,47.562989550008204,46.87959269998828,,,,001,2021_May_05_1431,list_pa,2021.1.4,59.90613905448617,
sounds/gauche.ogg,0.7,,0,0,0,0,0,5,5,14,,,,,49.063516050000906,48.38036270000157,,,,001,2021_May_05_1431,list_pa,2021.1.4,59.90613905448617,
sounds/droite.ogg,0.7,,0,0,0,0,0,6,6,46,,,,,50.56329774999758,None,,,,001,2021_May_05_1431,list_pa,2021.1.4,59.90613905448617,
sounds/droite.ogg,0.7,,0,0,0,0,0,7,7,31,,,,,52.0648764499987,51.38059099999373,,,,001,2021_May_05_1431,list_pa,2021.1.4,59.90613905448617,
sounds/gauche.ogg,0.7,,0,0,0,0,0,8,8,8,,,,,53.56455054999096,52.880677400011336,,,,001,2021_May_05_1431,list_pa,2021.1.4,59.90613905448617,
sounds/droite.ogg,0.7,,0,0,0,0,0,9,9,34,,,,,55.06458235000027,54.3808480000007,,,,001,2021_May_05_1431,list_pa,2021.1.4,59.90613905448617,
sounds/droite.ogg,0.7,,0,0,0,0,0,10,10,47,,,,,56.56518395001185,55.88114929999574,,,,001,2021_May_05_1431,list_pa,2021.1.4,59.90613905448617,
sounds/droite.ogg,0.7,,0,0,0,0,0,11,11,33,,,,,58.06520275000948,None,,,,001,2021_May_05_1431,list_pa,2021.1.4,59.90613905448617,
sounds/gauche.ogg,0.7,,0,0,0,0,0,12,12,5,,,,,59.5660461499996,58.881574900005944,,,,001,2021_May_05_1431,list_pa,2021.1.4,59.90613905448617,
sounds/droite.ogg,0.7,,0,0,0,0,0,13,13,27,,,,,61.066743750014574,60.38153029998648,,,,001,2021_May_05_1431,list_pa,2021.1.4,59.90613905448617,
sounds/gauche.ogg,0.7,,0,0,0,0,0,14,14,15,,,,,62.565826449985614,61.88049849998788,,,,001,2021_May_05_1431,list_pa,2021.1.4,59.90613905448617,
sounds/gauche.ogg,0.7,,0,0,0,0,0,15,15,2,,,,,64.06696174998652,63.38176960000419,,,,001,2021_May_05_1431,list_pa,2021.1.4,59.90613905448617,
sounds/gauche.ogg,0.7,,0,0,0,0,0,16,16,21,,,,,65.56722974998993,64.88359829998808,,,,001,2021_May_05_1431,list_pa,2021.1.4,59.90613905448617,
sounds/gauche.ogg,0.7,,0,0,0,0,0,17,17,6,,,,,67.06683405000368,66.38337279998814,,,,001,2021_May_05_1431,list_pa,2021.1.4,59.90613905448617,
sounds/droite.ogg,0.7,,0,0,0,0,0,18,18,43,,,,,68.56787954999018,None,,,,001,2021_May_05_1431,list_pa,2021.1.4,59.90613905448617,
sounds/droite.ogg,0.7,,0,0,0,0,0,19,19,45,,,,,70.0680753499968,69.38359189999755,,,,001,2021_May_05_1431,list_pa,2021.1.4,59.90613905448617,
sounds/gauche.ogg,0.7,,0,0,0,0,0,20,20,11,,,,,71.56815775001306,70.88457789999666,,,,001,2021_May_05_1431,list_pa,2021.1.4,59.90613905448617,
sounds/gauche.ogg,0.7,,0,0,0,0,0,21,21,4,,,,,73.06820335001103,72.38482020000811,,,,001,2021_May_05_1431,list_pa,2021.1.4,59.90613905448617,
sounds/gauche.ogg,0.7,,0,0,0,0,0,22,22,7,,,,,74.5683674500091,73.88512920000358,,,,001,2021_May_05_1431,list_pa,2021.1.4,59.90613905448617,
sounds/droite.ogg,0.7,,0,0,0,0,0,23,23,39,,,,,76.06933135001455,75.3854064999905,,,,001,2021_May_05_1431,list_pa,2021.1.4,59.90613905448617,
sounds/droite.ogg,0.7,,0,0,0,0,0,24,24,30,,,,,77.56906205000124,76.8856334000011,,,,001,2021_May_05_1431,list_pa,2021.1.4,59.90613905448617,
sounds/droite.ogg,0.7,,0,0,0,0,0,25,25,48,,,,,79.06944975001389,78.387223800004,,,,001,2021_May_05_1431,list_pa,2021.1.4,59.90613905448617,
sounds/gauche.ogg,0.7,,0,0,0,0,0,26,26,18,,,,,80.56942324998673,None,,,,001,2021_May_05_1431,list_pa,2021.1.4,59.90613905448617,
sounds/gauche.ogg,0.7,,0,0,0,0,0,27,27,12,,,,,82.06946914998699,81.38668409999809,,,,001,2021_May_05_1431,list_pa,2021.1.4,59.90613905448617,
sounds/gauche.ogg,0.7,,0,0,0,0,0,28,28,1,,,,,83.57053085000953,82.88693700000294,,,,001,2021_May_05_1431,list_pa,2021.1.4,59.90613905448617,
sounds/droite.ogg,0.7,,0,0,0,0,0,29,29,40,,,,,85.07097755000578,None,,,,001,2021_May_05_1431,list_pa,2021.1.4,59.90613905448617,
sounds/droite.ogg,0.7,,0,0,0,0,0,30,30,44,,,,,86.57057924999972,85.88632079999661,,,,001,2021_May_05_1431,list_pa,2021.1.4,59.90613905448617,
sounds/droite.ogg,0.7,,0,0,0,0,0,31,31,26,,,,,88.07132225001115,87.38858040000196,,,,001,2021_May_05_1431,list_pa,2021.1.4,59.90613905448617,
sounds/droite.ogg,0.7,,0,0,0,0,0,32,32,38,,,,,89.57158744999325,None,,,,001,2021_May_05_1431,list_pa,2021.1.4,59.90613905448617,
sounds/droite.ogg,0.7,,0,0,0,0,0,33,33,37,,,,,91.07205344999093,90.38798500000848,,,,001,2021_May_05_1431,list_pa,2021.1.4,59.90613905448617,
sounds/gauche.ogg,0.7,,0,0,0,0,0,34,34,24,,,,,92.57193844998838,91.88872819999233,,,,001,2021_May_05_1431,list_pa,2021.1.4,59.90613905448617,
sounds/droite.ogg,0.7,,0,0,0,0,0,35,35,25,,,,,94.07265024999506,93.38923299999442,,,,001,2021_May_05_1431,list_pa,2021.1.4,59.90613905448617,
sounds/droite.ogg,0.7,,0,0,0,0,0,36,36,42,,,,,95.57298664999544,94.88926009999705,,,,001,2021_May_05_1431,list_pa,2021.1.4,59.90613905448617,
sounds/gauche.ogg,0.7,,0,0,0,0,0,37,37,3,,,,,97.07270684998949,96.39031690001138,,,,001,2021_May_05_1431,list_pa,2021.1.4,59.90613905448617,
sounds/gauche.ogg,0.7,,0,0,0,0,0,38,38,17,,,,,98.57334904999007,97.8892579000094,,,,001,2021_May_05_1431,list_pa,2021.1.4,59.90613905448617,
sounds/droite.ogg,0.7,,0,0,0,0,0,39,39,41,,,,,100.07382794999867,99.39042690000497,,,,001,2021_May_05_1431,list_pa,2021.1.4,59.90613905448617,
sounds/gauche.ogg,0.7,,0,0,0,0,0,40,40,0,,,,,101.57438534999383,None,,,,001,2021_May_05_1431,list_pa,2021.1.4,59.90613905448617,
sounds/gauche.ogg,0.7,,0,0,0,0,0,41,41,10,,,,,103.07406975000632,102.390750999999,,,,001,2021_May_05_1431,list_pa,2021.1.4,59.90613905448617,
sounds/droite.ogg,0.7,,0,0,0,0,0,42,42,29,,,,,104.57471605000902,103.89123959999415,,,,001,2021_May_05_1431,list_pa,2021.1.4,59.90613905448617,
sounds/droite.ogg,0.7,,0,0,0,0,0,43,43,32,,,,,106.07461245000596,None,,,,001,2021_May_05_1431,list_pa,2021.1.4,59.90613905448617,
sounds/gauche.ogg,0.7,,0,0,0,0,0,44,44,9,,,,,107.57565695001395,106.89121159998467,,,,001,2021_May_05_1431,list_pa,2021.1.4,59.90613905448617,
sounds/droite.ogg,0.7,,0,0,0,0,0,45,45,28,,,,,109.07569264999475,108.39173719999962,,,,001,2021_May_05_1431,list_pa,2021.1.4,59.90613905448617,
sounds/gauche.ogg,0.7,,0,0,0,0,0,46,46,19,,,,,110.57608224999277,109.89157050001086,,,,001,2021_May_05_1431,list_pa,2021.1.4,59.90613905448617,
sounds/gauche.ogg,0.7,,0,0,0,0,0,47,47,16,,,,,112.07677205000655,111.39390729999286,,,,001,2021_May_05_1431,list_pa,2021.1.4,59.90613905448617,
sounds/droite.ogg,0.7,,0,0,0,0,0,48,48,49,,,,,113.5767072500079,112.89173840000876,,,,001,2021_May_05_1431,list_pa,2021.1.4,59.90613905448617,
sounds/gauche.ogg,0.7,,0,0,0,0,0,49,49,22,,,,,115.07721034999705,114.39280430000508,,,,001,2021_May_05_1431,list_pa,2021.1.4,59.90613905448617,
,,30,0,0,0,0,,,,,0,0,0,0,,,116.17483780000475,None,,001,2021_May_05_1431,list_pa,2021.1.4,59.90613905448617,
,,29,0,0,0,0,,,,,0,1,1,1,,,116.91057869998622,None,,001,2021_May_05_1431,list_pa,2021.1.4,59.90613905448617,
,,28,0,0,0,0,,,,,0,2,2,2,,,117.9104529999895,None,,001,2021_May_05_1431,list_pa,2021.1.4,59.90613905448617,
,,27,0,0,0,0,,,,,0,3,3,3,,,118.91070489998674,None,,001,2021_May_05_1431,list_pa,2021.1.4,59.90613905448617,
,,26,0,0,0,0,,,,,0,4,4,4,,,119.91119210000033,None,,001,2021_May_05_1431,list_pa,2021.1.4,59.90613905448617,
,,25,0,0,0,0,,,,,0,5,5,5,,,120.91089589998592,None,,001,2021_May_05_1431,list_pa,2021.1.4,59.90613905448617,
,,24,0,0,0,0,,,,,0,6,6,6,,,121.91106529999524,None,,001,2021_May_05_1431,list_pa,2021.1.4,59.90613905448617,
,,23,0,0,0,0,,,,,0,7,7,7,,,122.91107830000692,None,,001,2021_May_05_1431,list_pa,2021.1.4,59.90613905448617,
,,22,0,0,0,0,,,,,0,8,8,8,,,123.91177430000971,None,,001,2021_May_05_1431,list_pa,2021.1.4,59.90613905448617,
,,21,0,0,0,0,,,,,0,9,9,9,,,124.91210570000112,None,,001,2021_May_05_1431,list_pa,2021.1.4,59.90613905448617,
,,20,0,0,0,0,,,,,0,10,10,10,,,125.91211199999088,None,,001,2021_May_05_1431,list_pa,2021.1.4,59.90613905448617,
,,19,0,0,0,0,,,,,0,11,11,11,,,126.91230560000986,None,,001,2021_May_05_1431,list_pa,2021.1.4,59.90613905448617,
,,18,0,0,0,0,,,,,0,12,12,12,,,127.91266500001075,None,,001,2021_May_05_1431,list_pa,2021.1.4,59.90613905448617,
,,17,0,0,0,0,,,,,0,13,13,13,,,128.9116623000009,None,,001,2021_May_05_1431,list_pa,2021.1.4,59.90613905448617,
,,16,0,0,0,0,,,,,0,14,14,14,,,129.91197320001083,None,,001,2021_May_05_1431,list_pa,2021.1.4,59.90613905448617,
,,15,0,0,0,0,,,,,0,15,15,15,,,130.91223369998625,None,,001,2021_May_05_1431,list_pa,2021.1.4,59.90613905448617,
,,14,0,0,0,0,,,,,0,16,16,16,,,131.91240490000928,None,,001,2021_May_05_1431,list_pa,2021.1.4,59.90613905448617,
,,13,0,0,0,0,,,,,0,17,17,17,,,132.91335369998706,None,,001,2021_May_05_1431,list_pa,2021.1.4,59.90613905448617,
,,12,0,0,0,0,,,,,0,18,18,18,,,133.9135871999897,None,,001,2021_May_05_1431,list_pa,2021.1.4,59.90613905448617,
,,11,0,0,0,0,,,,,0,19,19,19,,,134.91368689999217,None,,001,2021_May_05_1431,list_pa,2021.1.4,59.90613905448617,
,,10,0,0,0,0,,,,,0,20,20,20,,,135.91404500001227,None,,001,2021_May_05_1431,list_pa,2021.1.4,59.90613905448617,
,,9,0,0,0,0,,,,,0,21,21,21,,,136.89705619998858,None,,001,2021_May_05_1431,list_pa,2021.1.4,59.90613905448617,
,,8,0,0,0,0,,,,,0,22,22,22,,,137.91432449998683,None,,001,2021_May_05_1431,list_pa,2021.1.4,59.90613905448617,
,,7,0,0,0,0,,,,,0,23,23,23,,,138.89810419999412,None,,001,2021_May_05_1431,list_pa,2021.1.4,59.90613905448617,
,,6,0,0,0,0,,,,,0,24,24,24,,,139.898480200005,None,,001,2021_May_05_1431,list_pa,2021.1.4,59.90613905448617,
,,5,0,0,0,0,,,,,0,25,25,25,,,140.89793199999258,None,,001,2021_May_05_1431,list_pa,2021.1.4,59.90613905448617,
,,4,0,0,0,0,,,,,0,26,26,26,,,141.89924950001296,None,,001,2021_May_05_1431,list_pa,2021.1.4,59.90613905448617,
,,3,0,0,0,0,,,,,0,27,27,27,,,142.8984974999912,None,,001,2021_May_05_1431,list_pa,2021.1.4,59.90613905448617,
,,2,0,0,0,0,,,,,0,28,28,28,,,143.8991676000005,None,,001,2021_May_05_1431,list_pa,2021.1.4,59.90613905448617,
,,1,0,0,0,0,,,,,0,29,29,29,,,144.89845929999137,None,,001,2021_May_05_1431,list_pa,2021.1.4,59.90613905448617,
,,0,0,0,0,0,,,,,0,30,30,30,,,145.8987599000102,None,,001,2021_May_05_1431,list_pa,2021.1.4,59.90613905448617,
,,,0,0,0,0,,,,,,,,,,,,,,001,2021_May_05_1431,list_pa,2021.1.4,59.90613905448617,
sounds/droite.ogg,0.7,,1,0,1,0,0,0,0,32,,,,,147.61507934998954,None,,,,001,2021_May_05_1431,list_pa,2021.1.4,59.90613905448617,
sounds/gauche.ogg,0.7,,1,0,1,0,0,1,1,1,,,,,149.1169001500006,148.4319480000122,,,,001,2021_May_05_1431,list_pa,2021.1.4,59.90613905448617,
sounds/gauche.ogg,0.7,,1,0,1,0,0,2,2,15,,,,,150.61788645000198,149.9335366000014,,,,001,2021_May_05_1431,list_pa,2021.1.4,59.90613905448617,
sounds/droite.ogg,0.7,,1,0,1,0,0,3,3,38,,,,,152.11802395000123,151.43405290000373,,,,001,2021_May_05_1431,list_pa,2021.1.4,59.90613905448617,
sounds/gauche.ogg,0.7,,1,0,1,0,0,4,4,2,,,,,153.61821285001352,152.93380430000252,,,,001,2021_May_05_1431,list_pa,2021.1.4,59.90613905448617,
sounds/droite.ogg,0.7,,1,0,1,0,0,5,5,33,,,,,155.11839575000923,154.43437929998618,,,,001,2021_May_05_1431,list_pa,2021.1.4,59.90613905448617,
sounds/droite.ogg,0.7,,1,0,1,0,0,6,6,25,,,,,156.61847645001254,155.9348253000062,,,,001,2021_May_05_1431,list_pa,2021.1.4,59.90613905448617,
sounds/gauche.ogg,0.7,,1,0,1,0,0,7,7,8,,,,,158.1193947499909,157.43530899999314,,,,001,2021_May_05_1431,list_pa,2021.1.4,59.90613905448617,
sounds/droite.ogg,0.7,,1,0,1,0,0,8,8,30,,,,,159.61943915000884,158.93454889999703,,,,001,2021_May_05_1431,list_pa,2021.1.4,59.90613905448617,
sounds/droite.ogg,0.7,,1,0,1,0,0,9,9,49,,,,,161.1199414499919,160.43547629998648,,,,001,2021_May_05_1431,list_pa,2021.1.4,59.90613905448617,
sounds/gauche.ogg,0.7,,1,0,1,0,0,10,10,6,,,,,162.61961515001022,161.9361590000044,,,,001,2021_May_05_1431,list_pa,2021.1.4,59.90613905448617,
sounds/droite.ogg,0.7,,1,0,1,0,0,11,11,27,,,,,164.11997934998945,None,,,,001,2021_May_05_1431,list_pa,2021.1.4,59.90613905448617,
sounds/gauche.ogg,0.7,,1,0,1,0,0,12,12,5,,,,,165.62021664999193,164.93667100000312,,,,001,2021_May_05_1431,list_pa,2021.1.4,59.90613905448617,
sounds/gauche.ogg,0.7,,1,0,1,0,0,13,13,14,,,,,167.12055805000128,166.43731999999727,,,,001,2021_May_05_1431,list_pa,2021.1.4,59.90613905448617,
sounds/droite.ogg,0.7,,1,0,1,0,0,14,14,26,,,,,168.62080994999852,None,,,,001,2021_May_05_1431,list_pa,2021.1.4,59.90613905448617,
sounds/droite.ogg,0.7,,1,0,1,0,0,15,15,37,,,,,170.12158315000707,169.4377753000008,,,,001,2021_May_05_1431,list_pa,2021.1.4,59.90613905448617,
sounds/droite.ogg,0.7,,1,0,1,0,0,16,16,36,,,,,171.6205719499907,170.93744290000177,,,,001,2021_May_05_1431,list_pa,2021.1.4,59.90613905448617,
sounds/droite.ogg,0.7,,1,0,1,0,0,17,17,31,,,,,173.1220927499875,172.43816819999483,,,,001,2021_May_05_1431,list_pa,2021.1.4,59.90613905448617,
sounds/gauche.ogg,0.7,,1,0,1,0,0,18,18,16,,,,,174.62229264999624,173.93878210001276,,,,001,2021_May_05_1431,list_pa,2021.1.4,59.90613905448617,
sounds/gauche.ogg,0.7,,1,0,1,0,0,19,19,7,,,,,176.12264135000297,175.43859720000182,,,,001,2021_May_05_1431,list_pa,2021.1.4,59.90613905448617,
sounds/gauche.ogg,0.7,,1,0,1,0,0,20,20,18,,,,,177.62285044999444,176.93789309999556,,,,001,2021_May_05_1431,list_pa,2021.1.4,59.90613905448617,
sounds/droite.ogg,0.7,,1,0,1,0,0,21,21,28,,,,,179.12271845000797,178.4398491999891,,,,001,2021_May_05_1431,list_pa,2021.1.4,59.90613905448617,
sounds/droite.ogg,0.7,,1,0,1,0,0,22,22,45,,,,,180.62345814999426,None,,,,001,2021_May_05_1431,list_pa,2021.1.4,59.90613905448617,
sounds/droite.ogg,0.7,,1,0,1,0,0,23,23,43,,,,,182.12386614998687,181.43934310000623,,,,001,2021_May_05_1431,list_pa,2021.1.4,59.90613905448617,
sounds/gauche.ogg,0.7,,1,0,1,0,0,24,24,22,,,,,183.62441374999472,182.94054869998945,,,,001,2021_May_05_1431,list_pa,2021.1.4,59.90613905448617,
sounds/droite.ogg,0.7,,1,0,1,0,0,25,25,46,,,,,185.12509744999116,184.4390306000132,,,,001,2021_May_05_1431,list_pa,2021.1.4,59.90613905448617,
sounds/gauche.ogg,0.7,,1,0,1,0,0,26,26,4,,,,,186.62476194999763,185.93920510000316,,,,001,2021_May_05_1431,list_pa,2021.1.4,59.90613905448617,
sounds/droite.ogg,0.7,,1,0,1,0,0,27,27,35,,,,,188.12513035000885,187.44129260000773,,,,001,2021_May_05_1431,list_pa,2021.1.4,59.90613905448617,
sounds/gauche.ogg,0.7,,1,0,1,0,0,28,28,17,,,,,189.625990750012,188.94121540000197,,,,001,2021_May_05_1431,list_pa,2021.1.4,59.90613905448617,
sounds/gauche.ogg,0.7,,1,0,1,0,0,29,29,24,,,,,191.1265151499887,190.44208350000554,,,,001,2021_May_05_1431,list_pa,2021.1.4,59.90613905448617,
sounds/gauche.ogg,0.7,,1,0,1,0,0,30,30,20,,,,,192.64237314998755,None,,,,001,2021_May_05_1431,list_pa,2021.1.4,59.90613905448617,
sounds/gauche.ogg,0.7,,1,0,1,0,0,31,31,9,,,,,194.14306455001352,193.45951570000034,,,,001,2021_May_05_1431,list_pa,2021.1.4,59.90613905448617,
sounds/gauche.ogg,0.7,,1,0,1,0,0,32,32,12,,,,,195.6431142500136,194.95941400001175,,,,001,2021_May_05_1431,list_pa,2021.1.4,59.90613905448617,
sounds/droite.ogg,0.7,,1,0,1,0,0,33,33,40,,,,,197.14356385000283,196.4605184000102,,,,001,2021_May_05_1431,list_pa,2021.1.4,59.90613905448617,
sounds/gauche.ogg,0.7,,1,0,1,0,0,34,34,11,,,,,198.6439556499885,197.96069420001004,,,,001,2021_May_05_1431,list_pa,2021.1.4,59.90613905448617,
sounds/droite.ogg,0.7,,1,0,1,0,0,35,35,44,,,,,200.14380754999584,None,,,,001,2021_May_05_1431,list_pa,2021.1.4,59.90613905448617,
sounds/droite.ogg,0.7,,1,0,1,0,0,36,36,48,,,,,201.6445755499939,200.95971689998987,,,,001,2021_May_05_1431,list_pa,2021.1.4,59.90613905448617,
sounds/droite.ogg,0.7,,1,0,1,0,0,37,37,47,,,,,203.14463025000296,202.46055909999995,,,,001,2021_May_05_1431,list_pa,2021.1.4,59.90613905448617,
sounds/gauche.ogg,0.7,,1,0,1,0,0,38,38,13,,,,,204.64568865000038,None,,,,001,2021_May_05_1431,list_pa,2021.1.4,59.90613905448617,
sounds/gauche.ogg,0.7,,1,0,1,0,0,39,39,23,,,,,206.14599565000972,None,,,,001,2021_May_05_1431,list_pa,2021.1.4,59.90613905448617,
sounds/gauche.ogg,0.7,,1,0,1,0,0,40,40,10,,,,,207.64567964999006,206.9616859999951,,,,001,2021_May_05_1431,list_pa,2021.1.4,59.90613905448617,
sounds/gauche.ogg,0.7,,1,0,1,0,0,41,41,19,,,,,209.14663924999186,208.46134380000876,,,,001,2021_May_05_1431,list_pa,2021.1.4,59.90613905448617,
sounds/droite.ogg,0.7,,1,0,1,0,0,42,42,29,,,,,210.6467105500109,209.9625592000084,,,,001,2021_May_05_1431,list_pa,2021.1.4,59.90613905448617,
sounds/droite.ogg,0.7,,1,0,1,0,0,43,43,34,,,,,212.14643465000555,211.46205719999853,,,,001,2021_May_05_1431,list_pa,2021.1.4,59.90613905448617,
sounds/droite.ogg,0.7,,1,0,1,0,0,44,44,42,,,,,213.64734604998958,212.9618233999936,,,,001,2021_May_05_1431,list_pa,2021.1.4,59.90613905448617,
sounds/gauche.ogg,0.7,,1,0,1,0,0,45,45,21,,,,,215.14689234999824,214.46337939999648,,,,001,2021_May_05_1431,list_pa,2021.1.4,59.90613905448617,
sounds/gauche.ogg,0.7,,1,0,1,0,0,46,46,0,,,,,216.64878694998916,215.9634354999871,,,,001,2021_May_05_1431,list_pa,2021.1.4,59.90613905448617,
sounds/gauche.ogg,0.7,,1,0,1,0,0,47,47,3,,,,,218.1482864499907,None,,,,001,2021_May_05_1431,list_pa,2021.1.4,59.90613905448617,
sounds/droite.ogg,0.7,,1,0,1,0,0,48,48,39,,,,,219.64906455000747,218.9629452000081,,,,001,2021_May_05_1431,list_pa,2021.1.4,59.90613905448617,
sounds/droite.ogg,0.7,,1,0,1,0,0,49,49,41,,,,,221.14821295001312,220.46482809999725,,,,001,2021_May_05_1431,list_pa,2021.1.4,59.90613905448617,
,,30,1,0,1,0,,,,,0,0,0,0,,,221.99796609999612,None,,001,2021_May_05_1431,list_pa,2021.1.4,59.90613905448617,
,,29,1,0,1,0,,,,,0,1,1,1,,,222.98204949998762,None,,001,2021_May_05_1431,list_pa,2021.1.4,59.90613905448617,
,,28,1,0,1,0,,,,,0,2,2,2,,,223.98122119999607,None,,001,2021_May_05_1431,list_pa,2021.1.4,59.90613905448617,
,,27,1,0,1,0,,,,,0,3,3,3,,,224.98210990001098,None,,001,2021_May_05_1431,list_pa,2021.1.4,59.90613905448617,
,,26,1,0,1,0,,,,,0,4,4,4,,,225.98254719999386,None,,001,2021_May_05_1431,list_pa,2021.1.4,59.90613905448617,
,,25,1,0,1,0,,,,,0,5,5,5,,,226.98269139998592,None,,001,2021_May_05_1431,list_pa,2021.1.4,59.90613905448617,
,,24,1,0,1,0,,,,,0,6,6,6,,,227.9822395000083,None,,001,2021_May_05_1431,list_pa,2021.1.4,59.90613905448617,
,,23,1,0,1,0,,,,,0,7,7,7,,,228.98326720000478,None,,001,2021_May_05_1431,list_pa,2021.1.4,59.90613905448617,
,,22,1,0,1,0,,,,,0,8,8,8,,,229.98284559999593,None,,001,2021_May_05_1431,list_pa,2021.1.4,59.90613905448617,
,,21,1,0,1,0,,,,,0,9,9,9,,,230.98341809998965,None,,001,2021_May_05_1431,list_pa,2021.1.4,59.90613905448617,
,,20,1,0,1,0,,,,,0,10,10,10,,,231.98284320000676,None,,001,2021_May_05_1431,list_pa,2021.1.4,59.90613905448617,
,,19,1,0,1,0,,,,,0,11,11,11,,,232.98342629999388,None,,001,2021_May_05_1431,list_pa,2021.1.4,59.90613905448617,
,,18,1,0,1,0,,,,,0,12,12,12,,,233.9840819000092,None,,001,2021_May_05_1431,list_pa,2021.1.4,59.90613905448617,
,,17,1,0,1,0,,,,,0,13,13,13,,,234.984569799999,None,,001,2021_May_05_1431,list_pa,2021.1.4,59.90613905448617,
,,16,1,0,1,0,,,,,0,14,14,14,,,235.9848978999944,None,,001,2021_May_05_1431,list_pa,2021.1.4,59.90613905448617,
,,15,1,0,1,0,,,,,0,15,15,15,,,236.98482529999455,None,,001,2021_May_05_1431,list_pa,2021.1.4,59.90613905448617,
,,14,1,0,1,0,,,,,0,16,16,16,,,237.9853172999865,None,,001,2021_May_05_1431,list_pa,2021.1.4,59.90613905448617,
,,13,1,0,1,0,,,,,0,17,17,17,,,238.9849419000093,None,,001,2021_May_05_1431,list_pa,2021.1.4,59.90613905448617,
,,12,1,0,1,0,,,,,0,18,18,18,,,239.98517559998436,None,,001,2021_May_05_1431,list_pa,2021.1.4,59.90613905448617,
,,11,1,0,1,0,,,,,0,19,19,19,,,240.98524959999486,None,,001,2021_May_05_1431,list_pa,2021.1.4,59.90613905448617,
,,10,1,0,1,0,,,,,0,20,20,20,,,241.9691942000063,None,,001,2021_May_05_1431,list_pa,2021.1.4,59.90613905448617,
,,9,1,0,1,0,,,,,0,21,21,21,,,242.96947740000905,None,,001,2021_May_05_1431,list_pa,2021.1.4,59.90613905448617,
,,8,1,0,1,0,,,,,0,22,22,22,,,243.96923240000615,None,,001,2021_May_05_1431,list_pa,2021.1.4,59.90613905448617,
,,7,1,0,1,0,,,,,0,23,23,23,,,244.96951070000068,None,,001,2021_May_05_1431,list_pa,2021.1.4,59.90613905448617,
,,6,1,0,1,0,,,,,0,24,24,24,,,245.97068160001072,None,,001,2021_May_05_1431,list_pa,2021.1.4,59.90613905448617,
,,5,1,0,1,0,,,,,0,25,25,25,,,246.9704628000036,None,,001,2021_May_05_1431,list_pa,2021.1.4,59.90613905448617,
,,4,1,0,1,0,,,,,0,26,26,26,,,247.97075740000582,None,,001,2021_May_05_1431,list_pa,2021.1.4,59.90613905448617,
,,3,1,0,1,0,,,,,0,27,27,27,,,248.97040779999224,None,,001,2021_May_05_1431,list_pa,2021.1.4,59.90613905448617,
,,2,1,0,1,0,,,,,0,28,28,28,,,249.9706767000025,None,,001,2021_May_05_1431,list_pa,2021.1.4,59.90613905448617,
,,1,1,0,1,0,,,,,0,29,29,29,,,250.970668199996,None,,001,2021_May_05_1431,list_pa,2021.1.4,59.90613905448617,
,,0,1,0,1,0,,,,,0,30,30,30,,,251.97055910000927,None,,001,2021_May_05_1431,list_pa,2021.1.4,59.90613905448617,
,,,1,0,1,0,,,,,,,,,,,,,,001,2021_May_05_1431,list_pa,2021.1.4,59.90613905448617,
sounds/gauche.ogg,0.7,,2,0,2,0,0,0,0,11,,,,,253.68803034999874,None,,,,001,2021_May_05_1431,list_pa,2021.1.4,59.90613905448617,
sounds/droite.ogg,0.7,,2,0,2,0,0,1,1,34,,,,,255.18894314999343,254.50482000000193,,,,001,2021_May_05_1431,list_pa,2021.1.4,59.90613905448617,
sounds/droite.ogg,0.7,,2,0,2,0,0,2,2,45,,,,,256.68895104999535,256.0051028000016,,,,001,2021_May_05_1431,list_pa,2021.1.4,59.90613905448617,
sounds/droite.ogg,0.7,,2,0,2,0,0,3,3,27,,,,,258.1891799499921,None,,,,001,2021_May_05_1431,list_pa,2021.1.4,59.90613905448617,
sounds/droite.ogg,0.7,,2,0,2,0,0,4,4,36,,,,,259.6896717500116,259.0051273999852,,,,001,2021_May_05_1431,list_pa,2021.1.4,59.90613905448617,
sounds/droite.ogg,0.7,,2,0,2,0,0,5,5,47,,,,,261.2047547499882,None,,,,001,2021_May_05_1431,list_pa,2021.1.4,59.90613905448617,
sounds/droite.ogg,0.7,,2,0,2,0,0,6,6,42,,,,,262.70708594998575,None,,,,001,2021_May_05_1431,list_pa,2021.1.4,59.90613905448617,
sounds/droite.ogg,0.7,,2,0,2,0,0,7,7,29,,,,,264.20736465001244,263.5220341999957,,,,001,2021_May_05_1431,list_pa,2021.1.4,59.90613905448617,
sounds/gauche.ogg,0.7,,2,0,2,0,0,8,8,0,,,,,265.70795374998704,265.0232657000015,,,,001,2021_May_05_1431,list_pa,2021.1.4,59.90613905448617,
sounds/droite.ogg,0.7,,2,0,2,0,0,9,9,40,,,,,267.2077142499969,266.5230096000014,,,,001,2021_May_05_1431,list_pa,2021.1.4,59.90613905448617,
sounds/gauche.ogg,0.7,,2,0,2,0,0,10,10,1,,,,,268.70866594999677,268.0227434000117,,,,001,2021_May_05_1431,list_pa,2021.1.4,59.90613905448617,
sounds/gauche.ogg,0.7,,2,0,2,0,0,11,11,21,,,,,270.206103949988,269.52290909999283,,,,001,2021_May_05_1431,list_pa,2021.1.4,59.90613905448617,
sounds/droite.ogg,0.7,,2,0,2,0,0,12,12,43,,,,,271.7082829499908,271.02348289999645,,,,001,2021_May_05_1431,list_pa,2021.1.4,59.90613905448617,
sounds/droite.ogg,0.7,,2,0,2,0,0,13,13,32,,,,,273.20833324999546,None,,,,001,2021_May_05_1431,list_pa,2021.1.4,59.90613905448617,
sounds/gauche.ogg,0.7,,2,0,2,0,0,14,14,3,,,,,274.7091181500058,274.024562400009,,,,001,2021_May_05_1431,list_pa,2021.1.4,59.90613905448617,
sounds/droite.ogg,0.7,,2,0,2,0,0,15,15,38,,,,,276.2100140499882,275.5259234000114,,,,001,2021_May_05_1431,list_pa,2021.1.4,59.90613905448617,
sounds/droite.ogg,0.7,,2,0,2,0,0,16,16,48,,,,,277.71043184999724,None,,,,001,2021_May_05_1431,list_pa,2021.1.4,59.90613905448617,
sounds/gauche.ogg,0.7,,2,0,2,0,0,17,17,2,,,,,279.20999244999837,278.5264705999871,,,,001,2021_May_05_1431,list_pa,2021.1.4,59.90613905448617,
sounds/droite.ogg,0.7,,2,0,2,0,0,18,18,25,,,,,280.71077984999863,280.0267116999894,,,,001,2021_May_05_1431,list_pa,2021.1.4,59.90613905448617,
sounds/gauche.ogg,0.7,,2,0,2,0,0,19,19,20,,,,,282.21055885000385,281.527121799998,,,,001,2021_May_05_1431,list_pa,2021.1.4,59.90613905448617,
sounds/droite.ogg,0.7,,2,0,2,0,0,20,20,39,,,,,283.7281135500001,None,,,,001,2021_May_05_1431,list_pa,2021.1.4,59.90613905448617,
sounds/droite.ogg,0.7,,2,0,2,0,0,21,21,28,,,,,285.22825885000054,284.54383020001114,,,,001,2021_May_05_1431,list_pa,2021.1.4,59.90613905448617,
sounds/gauche.ogg,0.7,,2,0,2,0,0,22,22,17,,,,,286.72882384999536,286.04423410000163,,,,001,2021_May_05_1431,list_pa,2021.1.4,59.90613905448617,
sounds/droite.ogg,0.7,,2,0,2,0,0,23,23,26,,,,,288.2287450500065,None,,,,001,2021_May_05_1431,list_pa,2021.1.4,59.90613905448617,
sounds/gauche.ogg,0.7,,2,0,2,0,0,24,24,9,,,,,289.72942284998715,289.04370239999844,,,,001,2021_May_05_1431,list_pa,2021.1.4,59.90613905448617,
sounds/gauche.ogg,0.7,,2,0,2,0,0,25,25,24,,,,,291.2293352499895,290.5449060999963,,,,001,2021_May_05_1431,list_pa,2021.1.4,59.90613905448617,
sounds/droite.ogg,0.7,,2,0,2,0,0,26,26,49,,,,,292.7299821499968,None,,,,001,2021_May_05_1431,list_pa,2021.1.4,59.90613905448617,
sounds/droite.ogg,0.7,,2,0,2,0,0,27,27,35,,,,,294.2300544499943,293.5460810000077,,,,001,2021_May_05_1431,list_pa,2021.1.4,59.90613905448617,
sounds/gauche.ogg,0.7,,2,0,2,0,0,28,28,8,,,,,295.73011725000686,295.0462828000018,,,,001,2021_May_05_1431,list_pa,2021.1.4,59.90613905448617,
sounds/gauche.ogg,0.7,,2,0,2,0,0,29,29,18,,,,,297.2300149500137,296.54705110000214,,,,001,2021_May_05_1431,list_pa,2021.1.4,59.90613905448617,
sounds/gauche.ogg,0.7,,2,0,2,0,0,30,30,7,,,,,298.73140075000117,298.04913609998766,,,,001,2021_May_05_1431,list_pa,2021.1.4,59.90613905448617,
sounds/gauche.ogg,0.7,,2,0,2,0,0,31,31,4,,,,,300.2304459500068,299.5473179999972,,,,001,2021_May_05_1431,list_pa,2021.1.4,59.90613905448617,
sounds/gauche.ogg,0.7,,2,0,2,0,0,32,32,19,,,,,301.731896949996,301.0479606000008,,,,001,2021_May_05_1431,list_pa,2021.1.4,59.90613905448617,
sounds/droite.ogg,0.7,,2,0,2,0,0,33,33,30,,,,,303.23127095000234,302.5479811000114,,,,001,2021_May_05_1431,list_pa,2021.1.4,59.90613905448617,
sounds/droite.ogg,0.7,,2,0,2,0,0,34,34,44,,,,,304.7326948499889,304.04800139999134,,,,001,2021_May_05_1431,list_pa,2021.1.4,59.90613905448617,
sounds/gauche.ogg,0.7,,2,0,2,0,0,35,35,13,,,,,306.23202224998965,305.5486105000018,,,,001,2021_May_05_1431,list_pa,2021.1.4,59.90613905448617,
sounds/droite.ogg,0.7,,2,0,2,0,0,36,36,31,,,,,307.73269035001283,307.0492463000119,,,,001,2021_May_05_1431,list_pa,2021.1.4,59.90613905448617,
sounds/gauche.ogg,0.7,,2,0,2,0,0,37,37,12,,,,,309.2328177499934,None,,,,001,2021_May_05_1431,list_pa,2021.1.4,59.90613905448617,
sounds/gauche.ogg,0.7,,2,0,2,0,0,38,38,22,,,,,310.7333608499961,310.0504772999848,,,,001,2021_May_05_1431,list_pa,2021.1.4,59.90613905448617,
sounds/gauche.ogg,0.7,,2,0,2,0,0,39,39,5,,,,,312.2332242500037,311.54968769999687,,,,001,2021_May_05_1431,list_pa,2021.1.4,59.90613905448617,
sounds/droite.ogg,0.7,,2,0,2,0,0,40,40,46,,,,,313.7344251500093,None,,,,001,2021_May_05_1431,list_pa,2021.1.4,59.90613905448617,
sounds/droite.ogg,0.7,,2,0,2,0,0,41,41,33,,,,,315.2343635500059,314.55019300000276,,,,001,2021_May_05_1431,list_pa,2021.1.4,59.90613905448617,
sounds/gauche.ogg,0.7,,2,0,2,0,0,42,42,14,,,,,316.73467054998616,316.05088950000936,,,,001,2021_May_05_1431,list_pa,2021.1.4,59.90613905448617,
sounds/gauche.ogg,0.7,,2,0,2,0,0,43,43,10,,,,,318.234648649994,317.5509873999981,,,,001,2021_May_05_1431,list_pa,2021.1.4,59.90613905448617,
sounds/droite.ogg,0.7,,2,0,2,0,0,44,44,37,,,,,319.73476634998804,319.05136529999436,,,,001,2021_May_05_1431,list_pa,2021.1.4,59.90613905448617,
sounds/gauche.ogg,0.7,,2,0,2,0,0,45,45,23,,,,,321.2355622499948,None,,,,001,2021_May_05_1431,list_pa,2021.1.4,59.90613905448617,
sounds/gauche.ogg,0.7,,2,0,2,0,0,46,46,15,,,,,322.7360978499986,322.0518696999934,,,,001,2021_May_05_1431,list_pa,2021.1.4,59.90613905448617,
sounds/gauche.ogg,0.7,,2,0,2,0,0,47,47,6,,,,,324.2370338499953,323.5518319999974,,,,001,2021_May_05_1431,list_pa,2021.1.4,59.90613905448617,
sounds/droite.ogg,0.7,,2,0,2,0,0,48,48,41,,,,,325.7361961499904,325.0524699999951,,,,001,2021_May_05_1431,list_pa,2021.1.4,59.90613905448617,
sounds/gauche.ogg,0.7,,2,0,2,0,0,49,49,16,,,,,327.2377852500125,None,,,,001,2021_May_05_1431,list_pa,2021.1.4,59.90613905448617,
,,30,2,0,2,0,,,,,0,0,0,0,,,328.0853533000045,None,,001,2021_May_05_1431,list_pa,2021.1.4,59.90613905448617,
,,29,2,0,2,0,,,,,0,1,1,1,,,329.0694153000077,None,,001,2021_May_05_1431,list_pa,2021.1.4,59.90613905448617,
,,28,2,0,2,0,,,,,0,2,2,2,,,330.07085570000345,None,,001,2021_May_05_1431,list_pa,2021.1.4,59.90613905448617,
,,27,2,0,2,0,,,,,0,3,3,3,,,331.0709149999893,None,,001,2021_May_05_1431,list_pa,2021.1.4,59.90613905448617,
,,26,2,0,2,0,,,,,0,4,4,4,,,332.071125699993,None,,001,2021_May_05_1431,list_pa,2021.1.4,59.90613905448617,
,,25,2,0,2,0,,,,,0,5,5,5,,,333.0702963999938,None,,001,2021_May_05_1431,list_pa,2021.1.4,59.90613905448617,
,,24,2,0,2,0,,,,,0,6,6,6,,,334.0708101000055,None,,001,2021_May_05_1431,list_pa,2021.1.4,59.90613905448617,
,,23,2,0,2,0,,,,,0,7,7,7,,,335.07075199999963,None,,001,2021_May_05_1431,list_pa,2021.1.4,59.90613905448617,
,,22,2,0,2,0,,,,,0,8,8,8,,,336.07149319999735,None,,001,2021_May_05_1431,list_pa,2021.1.4,59.90613905448617,
,,21,2,0,2,0,,,,,0,9,9,9,,,337.07248639999307,None,,001,2021_May_05_1431,list_pa,2021.1.4,59.90613905448617,
,,20,2,0,2,0,,,,,0,10,10,10,,,338.07206959999166,None,,001,2021_May_05_1431,list_pa,2021.1.4,59.90613905448617,
,,19,2,0,2,0,,,,,0,11,11,11,,,339.0724285999895,None,,001,2021_May_05_1431,list_pa,2021.1.4,59.90613905448617,
,,18,2,0,2,0,,,,,0,12,12,12,,,340.07221079999,None,,001,2021_May_05_1431,list_pa,2021.1.4,59.90613905448617,
,,17,2,0,2,0,,,,,0,13,13,13,,,341.07153789998847,None,,001,2021_May_05_1431,list_pa,2021.1.4,59.90613905448617,
,,16,2,0,2,0,,,,,0,14,14,14,,,342.07210789999226,None,,001,2021_May_05_1431,list_pa,2021.1.4,59.90613905448617,
,,15,2,0,2,0,,,,,0,15,15,15,,,343.0721030999848,None,,001,2021_May_05_1431,list_pa,2021.1.4,59.90613905448617,
,,14,2,0,2,0,,,,,0,16,16,16,,,344.05566429998726,None,,001,2021_May_05_1431,list_pa,2021.1.4,59.90613905448617,
,,13,2,0,2,0,,,,,0,17,17,17,,,345.073163699999,None,,001,2021_May_05_1431,list_pa,2021.1.4,59.90613905448617,
,,12,2,0,2,0,,,,,0,18,18,18,,,346.07319560000906,None,,001,2021_May_05_1431,list_pa,2021.1.4,59.90613905448617,
,,11,2,0,2,0,,,,,0,19,19,19,,,347.0562942000106,None,,001,2021_May_05_1431,list_pa,2021.1.4,59.90613905448617,
,,10,2,0,2,0,,,,,0,20,20,20,,,348.07392309998977,None,,001,2021_May_05_1431,list_pa,2021.1.4,59.90613905448617,
,,9,2,0,2,0,,,,,0,21,21,21,,,349.07529179999256,None,,001,2021_May_05_1431,list_pa,2021.1.4,59.90613905448617,
,,8,2,0,2,0,,,,,0,22,22,22,,,350.05610570000135,None,,001,2021_May_05_1431,list_pa,2021.1.4,59.90613905448617,
,,7,2,0,2,0,,,,,0,23,23,23,,,351.0742370999942,None,,001,2021_May_05_1431,list_pa,2021.1.4,59.90613905448617,
,,6,2,0,2,0,,,,,0,24,24,24,,,352.0757203999965,None,,001,2021_May_05_1431,list_pa,2021.1.4,59.90613905448617,
,,5,2,0,2,0,,,,,0,25,25,25,,,353.0747352000035,None,,001,2021_May_05_1431,list_pa,2021.1.4,59.90613905448617,
,,4,2,0,2,0,,,,,0,26,26,26,,,354.07516010000836,None,,001,2021_May_05_1431,list_pa,2021.1.4,59.90613905448617,
,,3,2,0,2,0,,,,,0,27,27,27,,,355.0753892000066,None,,001,2021_May_05_1431,list_pa,2021.1.4,59.90613905448617,
,,2,2,0,2,0,,,,,0,28,28,28,,,356.0580297000124,None,,001,2021_May_05_1431,list_pa,2021.1.4,59.90613905448617,
,,1,2,0,2,0,,,,,0,29,29,29,,,357.05926629999885,None,,001,2021_May_05_1431,list_pa,2021.1.4,59.90613905448617,
,,0,2,0,2,0,,,,,0,30,30,30,,,358.05999780001,None,,001,2021_May_05_1431,list_pa,2021.1.4,59.90613905448617,
,,,2,0,2,0,,,,,,,,,,,,,,001,2021_May_05_1431,list_pa,2021.1.4,59.90613905448617,
sounds/droite.ogg,0.7,,3,0,3,0,0,0,0,34,,,,,359.76002364999147,None,,,,001,2021_May_05_1431,list_pa,2021.1.4,59.90613905448617,
sounds/droite.ogg,0.7,,3,0,3,0,0,1,1,31,,,,,361.2600202499947,360.57499709998956,,,,001,2021_May_05_1431,list_pa,2021.1.4,59.90613905448617,
sounds/gauche.ogg,0.7,,3,0,3,0,0,2,2,11,,,,,362.7604659500124,362.0755513999902,,,,001,2021_May_05_1431,list_pa,2021.1.4,59.90613905448617,
sounds/droite.ogg,0.7,,3,0,3,0,0,3,3,49,,,,,364.2607371500111,None,,,,001,2021_May_05_1431,list_pa,2021.1.4,59.90613905448617,
sounds/gauche.ogg,0.7,,3,0,3,0,0,4,4,15,,,,,365.7607702500012,365.07744309998816,,,,001,2021_May_05_1431,list_pa,2021.1.4,59.90613905448617,
sounds/gauche.ogg,0.7,,3,0,3,0,0,5,5,23,,,,,367.2614750500128,366.5763511999976,,,,001,2021_May_05_1431,list_pa,2021.1.4,59.90613905448617,
sounds/gauche.ogg,0.7,,3,0,3,0,0,6,6,12,,,,,368.76185784998813,None,,,,001,2021_May_05_1431,list_pa,2021.1.4,59.90613905448617,
sounds/droite.ogg,0.7,,3,0,3,0,0,7,7,27,,,,,370.26203734998705,369.57780020000064,,,,001,2021_May_05_1431,list_pa,2021.1.4,59.90613905448617,
sounds/gauche.ogg,0.7,,3,0,3,0,0,8,8,10,,,,,371.7629228500067,371.0790354000055,,,,001,2021_May_05_1431,list_pa,2021.1.4,59.90613905448617,
sounds/droite.ogg,0.7,,3,0,3,0,0,9,9,33,,,,,373.2624670499994,None,,,,001,2021_May_05_1431,list_pa,2021.1.4,59.90613905448617,
sounds/droite.ogg,0.7,,3,0,3,0,0,10,10,44,,,,,374.763040850003,374.07906069999444,,,,001,2021_May_05_1431,list_pa,2021.1.4,59.90613905448617,
sounds/droite.ogg,0.7,,3,0,3,0,0,11,11,40,,,,,376.2633577500004,375.57915929998853,,,,001,2021_May_05_1431,list_pa,2021.1.4,59.90613905448617,
sounds/droite.ogg,0.7,,3,0,3,0,0,12,12,48,,,,,377.7635569500038,377.07994659998803,,,,001,2021_May_05_1431,list_pa,2021.1.4,59.90613905448617,
sounds/gauche.ogg,0.7,,3,0,3,0,0,13,13,24,,,,,379.2636612500122,378.58015170000726,,,,001,2021_May_05_1431,list_pa,2021.1.4,59.90613905448617,
sounds/droite.ogg,0.7,,3,0,3,0,0,14,14,47,,,,,380.7639676499879,380.08057660001214,,,,001,2021_May_05_1431,list_pa,2021.1.4,59.90613905448617,
sounds/gauche.ogg,0.7,,3,0,3,0,0,15,15,9,,,,,382.26397544998906,381.57998670000234,,,,001,2021_May_05_1431,list_pa,2021.1.4,59.90613905448617,
sounds/gauche.ogg,0.7,,3,0,3,0,0,16,16,16,,,,,383.7650294500112,383.080541000003,,,,001,2021_May_05_1431,list_pa,2021.1.4,59.90613905448617,
sounds/droite.ogg,0.7,,3,0,3,0,0,17,17,36,,,,,385.2648762500088,384.58052429999225,,,,001,2021_May_05_1431,list_pa,2021.1.4,59.90613905448617,
sounds/droite.ogg,0.7,,3,0,3,0,0,18,18,42,,,,,386.7636413500062,None,,,,001,2021_May_05_1431,list_pa,2021.1.4,59.90613905448617,
sounds/gauche.ogg,0.7,,3,0,3,0,0,19,19,7,,,,,388.26588415000003,None,,,,001,2021_May_05_1431,list_pa,2021.1.4,59.90613905448617,
sounds/droite.ogg,0.7,,3,0,3,0,0,20,20,37,,,,,389.76515314999267,389.0816729000071,,,,001,2021_May_05_1431,list_pa,2021.1.4,59.90613905448617,
sounds/gauche.ogg,0.7,,3,0,3,0,0,21,21,22,,,,,391.2667364499997,None,,,,001,2021_May_05_1431,list_pa,2021.1.4,59.90613905448617,
sounds/droite.ogg,0.7,,3,0,3,0,0,22,22,35,,,,,392.76754924998966,392.08293490001233,,,,001,2021_May_05_1431,list_pa,2021.1.4,59.90613905448617,
sounds/gauche.ogg,0.7,,3,0,3,0,0,23,23,3,,,,,394.26751305000505,393.5825882999925,,,,001,2021_May_05_1431,list_pa,2021.1.4,59.90613905448617,
sounds/droite.ogg,0.7,,3,0,3,0,0,24,24,38,,,,,395.7673413500073,395.08315429999493,,,,001,2021_May_05_1431,list_pa,2021.1.4,59.90613905448617,
sounds/gauche.ogg,0.7,,3,0,3,0,0,25,25,1,,,,,397.26838264999094,396.5835873000033,,,,001,2021_May_05_1431,list_pa,2021.1.4,59.90613905448617,
sounds/droite.ogg,0.7,,3,0,3,0,0,26,26,28,,,,,398.7686750500055,398.08358350000344,,,,001,2021_May_05_1431,list_pa,2021.1.4,59.90613905448617,
sounds/droite.ogg,0.7,,3,0,3,0,0,27,27,45,,,,,400.26829414998645,399.58465609999257,,,,001,2021_May_05_1431,list_pa,2021.1.4,59.90613905448617,
sounds/droite.ogg,0.7,,3,0,3,0,0,28,28,26,,,,,401.76845944999366,401.0844303999911,,,,001,2021_May_05_1431,list_pa,2021.1.4,59.90613905448617,
sounds/gauche.ogg,0.7,,3,0,3,0,0,29,29,20,,,,,403.2695728500024,402.58519610000076,,,,001,2021_May_05_1431,list_pa,2021.1.4,59.90613905448617,
sounds/droite.ogg,0.7,,3,0,3,0,0,30,30,39,,,,,404.76906875000566,404.08561599999666,,,,001,2021_May_05_1431,list_pa,2021.1.4,59.90613905448617,
sounds/droite.ogg,0.7,,3,0,3,0,0,31,31,29,,,,,406.2693271499942,405.5858472000109,,,,001,2021_May_05_1431,list_pa,2021.1.4,59.90613905448617,
sounds/gauche.ogg,0.7,,3,0,3,0,0,32,32,18,,,,,407.7696888500126,None,,,,001,2021_May_05_1431,list_pa,2021.1.4,59.90613905448617,
sounds/droite.ogg,0.7,,3,0,3,0,0,33,33,41,,,,,409.26976344999855,408.5860803000105,,,,001,2021_May_05_1431,list_pa,2021.1.4,59.90613905448617,
sounds/droite.ogg,0.7,,3,0,3,0,0,34,34,46,,,,,410.7702178499952,410.0856094000046,,,,001,2021_May_05_1431,list_pa,2021.1.4,59.90613905448617,
sounds/gauche.ogg,0.7,,3,0,3,0,0,35,35,19,,,,,412.2703469499887,411.5861764999863,,,,001,2021_May_05_1431,list_pa,2021.1.4,59.90613905448617,
sounds/gauche.ogg,0.7,,3,0,3,0,0,36,36,5,,,,,413.77059755000516,413.0869951999921,,,,001,2021_May_05_1431,list_pa,2021.1.4,59.90613905448617,
sounds/droite.ogg,0.7,,3,0,3,0,0,37,37,25,,,,,415.2710851499927,414.58733810001286,,,,001,2021_May_05_1431,list_pa,2021.1.4,59.90613905448617,
sounds/gauche.ogg,0.7,,3,0,3,0,0,38,38,8,,,,,416.7709953500074,416.0877893999859,,,,001,2021_May_05_1431,list_pa,2021.1.4,59.90613905448617,
sounds/droite.ogg,0.7,,3,0,3,0,0,39,39,30,,,,,418.27166845001045,417.58834720001323,,,,001,2021_May_05_1431,list_pa,2021.1.4,59.90613905448617,
sounds/gauche.ogg,0.7,,3,0,3,0,0,40,40,14,,,,,419.7717927499965,419.0891552999965,,,,001,2021_May_05_1431,list_pa,2021.1.4,59.90613905448617,
sounds/gauche.ogg,0.7,,3,0,3,0,0,41,41,4,,,,,421.2723945500096,420.5885053999955,,,,001,2021_May_05_1431,list_pa,2021.1.4,59.90613905448617,
sounds/gauche.ogg,0.7,,3,0,3,0,0,42,42,2,,,,,422.77282655001034,422.089375200012,,,,001,2021_May_05_1431,list_pa,2021.1.4,59.90613905448617,
sounds/droite.ogg,0.7,,3,0,3,0,0,43,43,32,,,,,424.27275074998613,None,,,,001,2021_May_05_1431,list_pa,2021.1.4,59.90613905448617,
sounds/gauche.ogg,0.7,,3,0,3,0,0,44,44,13,,,,,425.7734313499881,425.0902468999848,,,,001,2021_May_05_1431,list_pa,2021.1.4,59.90613905448617,
sounds/gauche.ogg,0.7,,3,0,3,0,0,45,45,17,,,,,427.27379705000783,426.5892826000054,,,,001,2021_May_05_1431,list_pa,2021.1.4,59.90613905448617,
sounds/gauche.ogg,0.7,,3,0,3,0,0,46,46,0,,,,,428.7735694499919,None,,,,001,2021_May_05_1431,list_pa,2021.1.4,59.90613905448617,
sounds/droite.ogg,0.7,,3,0,3,0,0,47,47,43,,,,,430.27400785001225,429.59056390001206,,,,001,2021_May_05_1431,list_pa,2021.1.4,59.90613905448617,
sounds/gauche.ogg,0.7,,3,0,3,0,0,48,48,6,,,,,431.77469525000777,431.09094289998757,,,,001,2021_May_05_1431,list_pa,2021.1.4,59.90613905448617,
sounds/gauche.ogg,0.7,,3,0,3,0,0,49,49,21,,,,,433.2745323499897,432.59103189999587,,,,001,2021_May_05_1431,list_pa,2021.1.4,59.90613905448617,
,,30,3,0,3,0,,,,,0,0,0,0,,,434.1246106000035,None,,001,2021_May_05_1431,list_pa,2021.1.4,59.90613905448617,
,,29,3,0,3,0,,,,,0,1,1,1,,,435.10918619998847,None,,001,2021_May_05_1431,list_pa,2021.1.4,59.90613905448617,
,,28,3,0,3,0,,,,,0,2,2,2,,,436.1086619999842,None,,001,2021_May_05_1431,list_pa,2021.1.4,59.90613905448617,
,,27,3,0,3,0,,,,,0,3,3,3,,,437.10930599999847,None,,001,2021_May_05_1431,list_pa,2021.1.4,59.90613905448617,
,,26,3,0,3,0,,,,,0,4,4,4,,,438.0912027999875,None,,001,2021_May_05_1431,list_pa,2021.1.4,59.90613905448617,
,,25,3,0,3,0,,,,,0,5,5,5,,,439.1093566000054,None,,001,2021_May_05_1431,list_pa,2021.1.4,59.90613905448617,
,,24,3,0,3,0,,,,,0,6,6,6,,,440.0917238999973,None,,001,2021_May_05_1431,list_pa,2021.1.4,59.90613905448617,
,,23,3,0,3,0,,,,,0,7,7,7,,,441.1093167999934,None,,001,2021_May_05_1431,list_pa,2021.1.4,59.90613905448617,
,,22,3,0,3,0,,,,,0,8,8,8,,,442.1096328999847,None,,001,2021_May_05_1431,list_pa,2021.1.4,59.90613905448617,
,,21,3,0,3,0,,,,,0,9,9,9,,,443.0917191999906,None,,001,2021_May_05_1431,list_pa,2021.1.4,59.90613905448617,
,,20,3,0,3,0,,,,,0,10,10,10,,,444.110402899998,None,,001,2021_May_05_1431,list_pa,2021.1.4,59.90613905448617,
,,19,3,0,3,0,,,,,0,11,11,11,,,445.11055469998973,None,,001,2021_May_05_1431,list_pa,2021.1.4,59.90613905448617,
,,18,3,0,3,0,,,,,0,12,12,12,,,446.0926188000012,None,,001,2021_May_05_1431,list_pa,2021.1.4,59.90613905448617,
,,17,3,0,3,0,,,,,0,13,13,13,,,447.1108835999912,None,,001,2021_May_05_1431,list_pa,2021.1.4,59.90613905448617,
,,16,3,0,3,0,,,,,0,14,14,14,,,448.11135150000337,None,,001,2021_May_05_1431,list_pa,2021.1.4,59.90613905448617,
,,15,3,0,3,0,,,,,0,15,15,15,,,449.0928539999877,None,,001,2021_May_05_1431,list_pa,2021.1.4,59.90613905448617,
,,14,3,0,3,0,,,,,0,16,16,16,,,450.1110761000018,None,,001,2021_May_05_1431,list_pa,2021.1.4,59.90613905448617,
,,13,3,0,3,0,,,,,0,17,17,17,,,451.11084619999747,None,,001,2021_May_05_1431,list_pa,2021.1.4,59.90613905448617,
,,12,3,0,3,0,,,,,0,18,18,18,,,452.1102918999968,None,,001,2021_May_05_1431,list_pa,2021.1.4,59.90613905448617,
,,11,3,0,3,0,,,,,0,19,19,19,,,453.11230290000094,None,,001,2021_May_05_1431,list_pa,2021.1.4,59.90613905448617,
,,10,3,0,3,0,,,,,0,20,20,20,,,454.112678400008,None,,001,2021_May_05_1431,list_pa,2021.1.4,59.90613905448617,
,,9,3,0,3,0,,,,,0,21,21,21,,,455.1121831999917,None,,001,2021_May_05_1431,list_pa,2021.1.4,59.90613905448617,
,,8,3,0,3,0,,,,,0,22,22,22,,,456.1116436999873,None,,001,2021_May_05_1431,list_pa,2021.1.4,59.90613905448617,
,,7,3,0,3,0,,,,,0,23,23,23,,,457.11232019998715,None,,001,2021_May_05_1431,list_pa,2021.1.4,59.90613905448617,
,,6,3,0,3,0,,,,,0,24,24,24,,,458.0964655999851,None,,001,2021_May_05_1431,list_pa,2021.1.4,59.90613905448617,
,,5,3,0,3,0,,,,,0,25,25,25,,,459.09646080000675,None,,001,2021_May_05_1431,list_pa,2021.1.4,59.90613905448617,
,,4,3,0,3,0,,,,,0,26,26,26,,,460.0968426000036,None,,001,2021_May_05_1431,list_pa,2021.1.4,59.90613905448617,
,,3,3,0,3,0,,,,,0,27,27,27,,,461.0961760999926,None,,001,2021_May_05_1431,list_pa,2021.1.4,59.90613905448617,
,,2,3,0,3,0,,,,,0,28,28,28,,,462.0974745999847,None,,001,2021_May_05_1431,list_pa,2021.1.4,59.90613905448617,
,,1,3,0,3,0,,,,,0,29,29,29,,,463.0973685999925,None,,001,2021_May_05_1431,list_pa,2021.1.4,59.90613905448617,
,,0,3,0,3,0,,,,,0,30,30,30,,,464.0964275999868,None,,001,2021_May_05_1431,list_pa,2021.1.4,59.90613905448617,
,,,3,0,3,0,,,,,,,,,,,,,,001,2021_May_05_1431,list_pa,2021.1.4,59.90613905448617,
sounds/droite.ogg,0.7,,4,0,4,0,0,0,0,46,,,,,465.8149791499949,None,,,,001,2021_May_05_1431,list_pa,2021.1.4,59.90613905448617,
sounds/droite.ogg,0.7,,4,0,4,0,0,1,1,42,,,,,467.3152002499904,466.63132179999957,,,,001,2021_May_05_1431,list_pa,2021.1.4,59.90613905448617,
sounds/droite.ogg,0.7,,4,0,4,0,0,2,2,29,,,,,468.8155521499924,468.13153009998496,,,,001,2021_May_05_1431,list_pa,2021.1.4,59.90613905448617,
sounds/droite.ogg,0.7,,4,0,4,0,0,3,3,30,,,,,470.31680095001354,None,,,,001,2021_May_05_1431,list_pa,2021.1.4,59.90613905448617,
sounds/droite.ogg,0.7,,4,0,4,0,0,4,4,37,,,,,471.81633214999454,471.1323906999896,,,,001,2021_May_05_1431,list_pa,2021.1.4,59.90613905448617,
sounds/gauche.ogg,0.7,,4,0,4,0,0,5,5,0,,,,,473.3160991499957,472.63199610001175,,,,001,2021_May_05_1431,list_pa,2021.1.4,59.90613905448617,
sounds/droite.ogg,0.7,,4,0,4,0,0,6,6,38,,,,,474.81704364999894,474.1325130999903,,,,001,2021_May_05_1431,list_pa,2021.1.4,59.90613905448617,
sounds/gauche.ogg,0.7,,4,0,4,0,0,7,7,16,,,,,476.3166812500043,475.632984099997,,,,001,2021_May_05_1431,list_pa,2021.1.4,59.90613905448617,
sounds/gauche.ogg,0.7,,4,0,4,0,0,8,8,22,,,,,477.81762655001364,477.1333289000031,,,,001,2021_May_05_1431,list_pa,2021.1.4,59.90613905448617,
sounds/gauche.ogg,0.7,,4,0,4,0,0,9,9,3,,,,,479.3178643499908,478.63323360000504,,,,001,2021_May_05_1431,list_pa,2021.1.4,59.90613905448617,
sounds/droite.ogg,0.7,,4,0,4,0,0,10,10,44,,,,,480.8182621499931,480.1339181000076,,,,001,2021_May_05_1431,list_pa,2021.1.4,59.90613905448617,
sounds/droite.ogg,0.7,,4,0,4,0,0,11,11,47,,,,,482.31787984999244,None,,,,001,2021_May_05_1431,list_pa,2021.1.4,59.90613905448617,
sounds/gauche.ogg,0.7,,4,0,4,0,0,12,12,15,,,,,483.8178326500114,483.13312049998785,,,,001,2021_May_05_1431,list_pa,2021.1.4,59.90613905448617,
sounds/droite.ogg,0.7,,4,0,4,0,0,13,13,43,,,,,485.3193047499866,484.6352077999909,,,,001,2021_May_05_1431,list_pa,2021.1.4,59.90613905448617,
sounds/droite.ogg,0.7,,4,0,4,0,0,14,14,27,,,,,486.8179702500114,None,,,,001,2021_May_05_1431,list_pa,2021.1.4,59.90613905448617,
sounds/gauche.ogg,0.7,,4,0,4,0,0,15,15,20,,,,,488.31909094998844,487.6354425000027,,,,001,2021_May_05_1431,list_pa,2021.1.4,59.90613905448617,
sounds/droite.ogg,0.7,,4,0,4,0,0,16,16,31,,,,,489.8190905500145,489.1359865000122,,,,001,2021_May_05_1431,list_pa,2021.1.4,59.90613905448617,
sounds/gauche.ogg,0.7,,4,0,4,0,0,17,17,1,,,,,491.3197717499919,490.6376653999905,,,,001,2021_May_05_1431,list_pa,2021.1.4,59.90613905448617,
sounds/droite.ogg,0.7,,4,0,4,0,0,18,18,39,,,,,492.81978895000645,492.1368724000058,,,,001,2021_May_05_1431,list_pa,2021.1.4,59.90613905448617,
sounds/droite.ogg,0.7,,4,0,4,0,0,19,19,36,,,,,494.3200537499855,493.6367709999904,,,,001,2021_May_05_1431,list_pa,2021.1.4,59.90613905448617,
sounds/droite.ogg,0.7,,4,0,4,0,0,20,20,49,,,,,495.8206679500057,495.1378720999928,,,,001,2021_May_05_1431,list_pa,2021.1.4,59.90613905448617,
sounds/gauche.ogg,0.7,,4,0,4,0,0,21,21,10,,,,,497.3217822499922,496.63781230000313,,,,001,2021_May_05_1431,list_pa,2021.1.4,59.90613905448617,
sounds/gauche.ogg,0.7,,4,0,4,0,0,22,22,12,,,,,498.8210506500094,None,,,,001,2021_May_05_1431,list_pa,2021.1.4,59.90613905448617,
sounds/droite.ogg,0.7,,4,0,4,0,0,23,23,35,,,,,500.3221254499862,499.63827980001224,,,,001,2021_May_05_1431,list_pa,2021.1.4,59.90613905448617,
sounds/droite.ogg,0.7,,4,0,4,0,0,24,24,33,,,,,501.8218687500106,501.1379992000002,,,,001,2021_May_05_1431,list_pa,2021.1.4,59.90613905448617,
sounds/gauche.ogg,0.7,,4,0,4,0,0,25,25,5,,,,,503.3222169500135,None,,,,001,2021_May_05_1431,list_pa,2021.1.4,59.90613905448617,
sounds/gauche.ogg,0.7,,4,0,4,0,0,26,26,2,,,,,504.8226464499952,504.14025639998727,,,,001,2021_May_05_1431,list_pa,2021.1.4,59.90613905448617,
sounds/droite.ogg,0.7,,4,0,4,0,0,27,27,25,,,,,506.3229960500088,505.63994880000246,,,,001,2021_May_05_1431,list_pa,2021.1.4,59.90613905448617,
sounds/gauche.ogg,0.7,,4,0,4,0,0,28,28,18,,,,,507.82305695000684,None,,,,001,2021_May_05_1431,list_pa,2021.1.4,59.90613905448617,
sounds/gauche.ogg,0.7,,4,0,4,0,0,29,29,4,,,,,509.3237357499951,508.640299199993,,,,001,2021_May_05_1431,list_pa,2021.1.4,59.90613905448617,
sounds/droite.ogg,0.7,,4,0,4,0,0,30,30,28,,,,,510.82439945001386,510.14095920001273,,,,001,2021_May_05_1431,list_pa,2021.1.4,59.90613905448617,
sounds/gauche.ogg,0.7,,4,0,4,0,0,31,31,13,,,,,512.3242502500128,511.6391890000086,,,,001,2021_May_05_1431,list_pa,2021.1.4,59.90613905448617,
sounds/gauche.ogg,0.7,,4,0,4,0,0,32,32,8,,,,,513.8242228500079,513.140824800008,,,,001,2021_May_05_1431,list_pa,2021.1.4,59.90613905448617,
sounds/droite.ogg,0.7,,4,0,4,0,0,33,33,45,,,,,515.3250610499875,514.6405558999977,,,,001,2021_May_05_1431,list_pa,2021.1.4,59.90613905448617,
sounds/gauche.ogg,0.7,,4,0,4,0,0,34,34,24,,,,,516.8252071499941,516.1408178999845,,,,001,2021_May_05_1431,list_pa,2021.1.4,59.90613905448617,
sounds/droite.ogg,0.7,,4,0,4,0,0,35,35,41,,,,,518.3258818500093,None,,,,001,2021_May_05_1431,list_pa,2021.1.4,59.90613905448617,
sounds/droite.ogg,0.7,,4,0,4,0,0,36,36,32,,,,,519.8262944500078,519.1411689000088,,,,001,2021_May_05_1431,list_pa,2021.1.4,59.90613905448617,
sounds/droite.ogg,0.7,,4,0,4,0,0,37,37,48,,,,,521.3261935499962,None,,,,001,2021_May_05_1431,list_pa,2021.1.4,59.90613905448617,
sounds/droite.ogg,0.7,,4,0,4,0,0,38,38,34,,,,,522.8270981499867,522.1418460000132,,,,001,2021_May_05_1431,list_pa,2021.1.4,59.90613905448617,
sounds/gauche.ogg,0.7,,4,0,4,0,0,39,39,17,,,,,524.3272479499923,523.6425507999957,,,,001,2021_May_05_1431,list_pa,2021.1.4,59.90613905448617,
sounds/gauche.ogg,0.7,,4,0,4,0,0,40,40,6,,,,,525.8274170499993,525.142880200001,,,,001,2021_May_05_1431,list_pa,2021.1.4,59.90613905448617,
sounds/gauche.ogg,0.7,,4,0,4,0,0,41,41,11,,,,,527.3274658499926,526.643533800001,,,,001,2021_May_05_1431,list_pa,2021.1.4,59.90613905448617,
sounds/gauche.ogg,0.7,,4,0,4,0,0,42,42,9,,,,,528.8298993500124,528.1438922999951,,,,001,2021_May_05_1431,list_pa,2021.1.4,59.90613905448617,
sounds/gauche.ogg,0.7,,4,0,4,0,0,43,43,7,,,,,530.3447214500105,529.6605139999883,,,,001,2021_May_05_1431,list_pa,2021.1.4,59.90613905448617,
sounds/droite.ogg,0.7,,4,0,4,0,0,44,44,26,,,,,531.8450369499973,531.1605887000042,,,,001,2021_May_05_1431,list_pa,2021.1.4,59.90613905448617,
sounds/gauche.ogg,0.7,,4,0,4,0,0,45,45,21,,,,,533.3450025499973,532.6610590000055,,,,001,2021_May_05_1431,list_pa,2021.1.4,59.90613905448617,
sounds/droite.ogg,0.7,,4,0,4,0,0,46,46,40,,,,,534.8455828499922,None,,,,001,2021_May_05_1431,list_pa,2021.1.4,59.90613905448617,
sounds/gauche.ogg,0.7,,4,0,4,0,0,47,47,23,,,,,536.3456635499955,None,,,,001,2021_May_05_1431,list_pa,2021.1.4,59.90613905448617,
sounds/gauche.ogg,0.7,,4,0,4,0,0,48,48,19,,,,,537.8468073500029,None,,,,001,2021_May_05_1431,list_pa,2021.1.4,59.90613905448617,
sounds/gauche.ogg,0.7,,4,0,4,0,0,49,49,14,,,,,539.3466955499956,538.6621142000076,,,,001,2021_May_05_1431,list_pa,2021.1.4,59.90613905448617,
,,30,4,0,4,0,,,,,0,0,0,0,,,540.1784053999872,None,,001,2021_May_05_1431,list_pa,2021.1.4,59.90613905448617,
,,29,4,0,4,0,,,,,0,1,1,1,,,541.1804940000002,None,,001,2021_May_05_1431,list_pa,2021.1.4,59.90613905448617,
,,28,4,0,4,0,,,,,0,2,2,2,,,542.180531799997,None,,001,2021_May_05_1431,list_pa,2021.1.4,59.90613905448617,
,,27,4,0,4,0,,,,,0,3,3,3,,,543.1806330000109,None,,001,2021_May_05_1431,list_pa,2021.1.4,59.90613905448617,
,,26,4,0,4,0,,,,,0,4,4,4,,,544.1805282999994,None,,001,2021_May_05_1431,list_pa,2021.1.4,59.90613905448617,
,,25,4,0,4,0,,,,,0,5,5,5,,,545.162086700002,None,,001,2021_May_05_1431,list_pa,2021.1.4,59.90613905448617,
,,24,4,0,4,0,,,,,0,6,6,6,,,546.1642442999873,None,,001,2021_May_05_1431,list_pa,2021.1.4,59.90613905448617,
,,23,4,0,4,0,,,,,0,7,7,7,,,547.1714664000028,None,,001,2021_May_05_1431,list_pa,2021.1.4,59.90613905448617,
,,22,4,0,4,0,,,,,0,8,8,8,,,548.1684736000025,None,,001,2021_May_05_1431,list_pa,2021.1.4,59.90613905448617,
,,21,4,0,4,0,,,,,0,9,9,9,,,None,None,,001,2021_May_05_1431,list_pa,2021.1.4,59.90613905448617,
,,20,4,0,4,0,,,,,0,10,10,10,,,None,None,,001,2021_May_05_1431,list_pa,2021.1.4,59.90613905448617,
,,19,4,0,4,0,,,,,0,11,11,11,,,None,None,,001,2021_May_05_1431,list_pa,2021.1.4,59.90613905448617,
,,18,4,0,4,0,,,,,0,12,12,12,,,None,None,,001,2021_May_05_1431,list_pa,2021.1.4,59.90613905448617,
,,17,4,0,4,0,,,,,0,13,13,13,,,None,None,,001,2021_May_05_1431,list_pa,2021.1.4,59.90613905448617,
,,16,4,0,4,0,,,,,0,14,14,14,,,None,None,,001,2021_May_05_1431,list_pa,2021.1.4,59.90613905448617,
,,15,4,0,4,0,,,,,0,15,15,15,,,None,None,,001,2021_May_05_1431,list_pa,2021.1.4,59.90613905448617,
,,14,4,0,4,0,,,,,0,16,16,16,,,None,None,,001,2021_May_05_1431,list_pa,2021.1.4,59.90613905448617,
,,13,4,0,4,0,,,,,0,17,17,17,,,None,None,,001,2021_May_05_1431,list_pa,2021.1.4,59.90613905448617,
,,12,4,0,4,0,,,,,0,18,18,18,,,None,None,,001,2021_May_05_1431,list_pa,2021.1.4,59.90613905448617,
,,11,4,0,4,0,,,,,0,19,19,19,,,None,None,,001,2021_May_05_1431,list_pa,2021.1.4,59.90613905448617,
,,10,4,0,4,0,,,,,0,20,20,20,,,None,None,,001,2021_May_05_1431,list_pa,2021.1.4,59.90613905448617,
,,9,4,0,4,0,,,,,0,21,21,21,,,None,None,,001,2021_May_05_1431,list_pa,2021.1.4,59.90613905448617,
,,8,4,0,4,0,,,,,0,22,22,22,,,None,None,,001,2021_May_05_1431,list_pa,2021.1.4,59.90613905448617,
,,7,4,0,4,0,,,,,0,23,23,23,,,None,None,,001,2021_May_05_1431,list_pa,2021.1.4,59.90613905448617,
,,6,4,0,4,0,,,,,0,24,24,24,,,None,None,,001,2021_May_05_1431,list_pa,2021.1.4,59.90613905448617,
,,5,4,0,4,0,,,,,0,25,25,25,,,None,None,,001,2021_May_05_1431,list_pa,2021.1.4,59.90613905448617,
,,4,4,0,4,0,,,,,0,26,26,26,,,None,None,,001,2021_May_05_1431,list_pa,2021.1.4,59.90613905448617,
,,3,4,0,4,0,,,,,0,27,27,27,,,None,None,,001,2021_May_05_1431,list_pa,2021.1.4,59.90613905448617,
,,2,4,0,4,0,,,,,0,28,28,28,,,None,None,,001,2021_May_05_1431,list_pa,2021.1.4,59.90613905448617,
,,1,4,0,4,0,,,,,0,29,29,29,,,None,None,,001,2021_May_05_1431,list_pa,2021.1.4,59.90613905448617,
,,0,4,0,4,0,,,,,0,30,30,30,,,None,None,,001,2021_May_05_1431,list_pa,2021.1.4,59.90613905448617,
,,,4,0,4,0,,,,,,,,,,,,,,001,2021_May_05_1431,list_pa,2021.1.4,59.90613905448617,
