word_stimuli,isi,countdown,trials.thisRepN,trials.thisTrialN,trials.thisN,trials.thisIndex,trial_loop.thisRepN,trial_loop.thisTrialN,trial_loop.thisN,trial_loop.thisIndex,trials_2.thisRepN,trials_2.thisTrialN,trials_2.thisN,trials_2.thisIndex,sound_exposure.started,sound_exposure.stopped,text.started,text.stopped,participant,session,date,expName,psychopyVersion,frameRate,
sounds/droite.ogg,0.7,,0,0,0,0,0,0,0,39,,,,,286.94489412000405,None,,,,001,2021_May_03_0939,list_pa,2021.1.4,60.78620881051077,
sounds/droite.ogg,0.7,,0,0,0,0,0,1,1,30,,,,,288.4456489199889,287.75954090000596,,,,001,2021_May_03_0939,list_pa,2021.1.4,60.78620881051077,
sounds/droite.ogg,0.7,,0,0,0,0,0,2,2,37,,,,,289.9451005200041,289.2603627999779,,,,001,2021_May_03_0939,list_pa,2021.1.4,60.78620881051077,
sounds/gauche.ogg,0.7,,0,0,0,0,0,3,3,13,,,,,291.44702082001606,290.75979290000396,,,,001,2021_May_03_0939,list_pa,2021.1.4,60.78620881051077,
sounds/droite.ogg,0.7,,0,0,0,0,0,4,4,25,,,,,292.946243219974,None,,,,001,2021_May_03_0939,list_pa,2021.1.4,60.78620881051077,
sounds/gauche.ogg,0.7,,0,0,0,0,0,5,5,16,,,,,294.44629121999026,293.76132659998257,,,,001,2021_May_03_0939,list_pa,2021.1.4,60.78620881051077,
sounds/droite.ogg,0.7,,0,0,0,0,0,6,6,36,,,,,295.946453820006,295.26067960000364,,,,001,2021_May_03_0939,list_pa,2021.1.4,60.78620881051077,
sounds/droite.ogg,0.7,,0,0,0,0,0,7,7,48,,,,,297.44714922000423,296.7618677999708,,,,001,2021_May_03_0939,list_pa,2021.1.4,60.78620881051077,
sounds/droite.ogg,0.7,,0,0,0,0,0,8,8,38,,,,,298.94696421999254,298.26233389996924,,,,001,2021_May_03_0939,list_pa,2021.1.4,60.78620881051077,
sounds/gauche.ogg,0.7,,0,0,0,0,0,9,9,7,,,,,300.44758411999794,299.7626575999893,,,,001,2021_May_03_0939,list_pa,2021.1.4,60.78620881051077,
sounds/gauche.ogg,0.7,,0,0,0,0,0,10,10,4,,,,,301.9476523199934,301.2625432999921,,,,001,2021_May_03_0939,list_pa,2021.1.4,60.78620881051077,
sounds/gauche.ogg,0.7,,0,0,0,0,0,11,11,22,,,,,303.4482626199839,302.76350070000626,,,,001,2021_May_03_0939,list_pa,2021.1.4,60.78620881051077,
sounds/gauche.ogg,0.7,,0,0,0,0,0,12,12,2,,,,,304.9475558200153,304.26379439997254,,,,001,2021_May_03_0939,list_pa,2021.1.4,60.78620881051077,
sounds/droite.ogg,0.7,,0,0,0,0,0,13,13,29,,,,,306.4478913200088,305.76222289999714,,,,001,2021_May_03_0939,list_pa,2021.1.4,60.78620881051077,
sounds/droite.ogg,0.7,,0,0,0,0,0,14,14,33,,,,,307.95051211999964,307.2640635999851,,,,001,2021_May_03_0939,list_pa,2021.1.4,60.78620881051077,
sounds/droite.ogg,0.7,,0,0,0,0,0,15,15,40,,,,,309.4489803199773,None,,,,001,2021_May_03_0939,list_pa,2021.1.4,60.78620881051077,
sounds/gauche.ogg,0.7,,0,0,0,0,0,16,16,15,,,,,310.9485012199963,310.2647264999687,,,,001,2021_May_03_0939,list_pa,2021.1.4,60.78620881051077,
sounds/droite.ogg,0.7,,0,0,0,0,0,17,17,26,,,,,312.4484113200102,311.7650329999742,,,,001,2021_May_03_0939,list_pa,2021.1.4,60.78620881051077,
sounds/gauche.ogg,0.7,,0,0,0,0,0,18,18,8,,,,,313.9501352199819,None,,,,001,2021_May_03_0939,list_pa,2021.1.4,60.78620881051077,
sounds/gauche.ogg,0.7,,0,0,0,0,0,19,19,21,,,,,315.4480946199852,314.7659348999732,,,,001,2021_May_03_0939,list_pa,2021.1.4,60.78620881051077,
sounds/gauche.ogg,0.7,,0,0,0,0,0,20,20,6,,,,,316.95029112000486,316.2660052999854,,,,001,2021_May_03_0939,list_pa,2021.1.4,60.78620881051077,
sounds/droite.ogg,0.7,,0,0,0,0,0,21,21,45,,,,,318.45042641998737,317.7663731999928,,,,001,2021_May_03_0939,list_pa,2021.1.4,60.78620881051077,
sounds/gauche.ogg,0.7,,0,0,0,0,0,22,22,12,,,,,319.94941382001855,319.26654209999833,,,,001,2021_May_03_0939,list_pa,2021.1.4,60.78620881051077,
sounds/droite.ogg,0.7,,0,0,0,0,0,23,23,28,,,,,321.45147481999595,320.7672378999996,,,,001,2021_May_03_0939,list_pa,2021.1.4,60.78620881051077,
sounds/droite.ogg,0.7,,0,0,0,0,0,24,24,44,,,,,322.95327841999244,322.2675014999695,,,,001,2021_May_03_0939,list_pa,2021.1.4,60.78620881051077,
sounds/droite.ogg,0.7,,0,0,0,0,0,25,25,43,,,,,324.46857871996474,None,,,,001,2021_May_03_0939,list_pa,2021.1.4,60.78620881051077,
sounds/droite.ogg,0.7,,0,0,0,0,0,26,26,31,,,,,325.9691902199644,325.2848357000039,,,,001,2021_May_03_0939,list_pa,2021.1.4,60.78620881051077,
sounds/droite.ogg,0.7,,0,0,0,0,0,27,27,47,,,,,327.46947282002077,326.7843555000145,,,,001,2021_May_03_0939,list_pa,2021.1.4,60.78620881051077,
sounds/gauche.ogg,0.7,,0,0,0,0,0,28,28,24,,,,,328.96976811999923,None,,,,001,2021_May_03_0939,list_pa,2021.1.4,60.78620881051077,
sounds/gauche.ogg,0.7,,0,0,0,0,0,29,29,3,,,,,330.47011222000003,329.78509879997,,,,001,2021_May_03_0939,list_pa,2021.1.4,60.78620881051077,
sounds/gauche.ogg,0.7,,0,0,0,0,0,30,30,17,,,,,331.9705369199743,331.2862777999835,,,,001,2021_May_03_0939,list_pa,2021.1.4,60.78620881051077,
sounds/droite.ogg,0.7,,0,0,0,0,0,31,31,42,,,,,333.4707104200148,332.78710100002354,,,,001,2021_May_03_0939,list_pa,2021.1.4,60.78620881051077,
sounds/droite.ogg,0.7,,0,0,0,0,0,32,32,35,,,,,334.9711712199729,334.2878510999726,,,,001,2021_May_03_0939,list_pa,2021.1.4,60.78620881051077,
sounds/gauche.ogg,0.7,,0,0,0,0,0,33,33,10,,,,,336.4714439200121,335.7871807999909,,,,001,2021_May_03_0939,list_pa,2021.1.4,60.78620881051077,
sounds/droite.ogg,0.7,,0,0,0,0,0,34,34,32,,,,,337.97215871998344,337.2858085000189,,,,001,2021_May_03_0939,list_pa,2021.1.4,60.78620881051077,
sounds/gauche.ogg,0.7,,0,0,0,0,0,35,35,20,,,,,339.4718659199658,338.7871121999924,,,,001,2021_May_03_0939,list_pa,2021.1.4,60.78620881051077,
sounds/droite.ogg,0.7,,0,0,0,0,0,36,36,27,,,,,340.988940320001,None,,,,001,2021_May_03_0939,list_pa,2021.1.4,60.78620881051077,
sounds/gauche.ogg,0.7,,0,0,0,0,0,37,37,11,,,,,342.48900412002115,341.80471840000246,,,,001,2021_May_03_0939,list_pa,2021.1.4,60.78620881051077,
sounds/gauche.ogg,0.7,,0,0,0,0,0,38,38,14,,,,,343.98952912000243,None,,,,001,2021_May_03_0939,list_pa,2021.1.4,60.78620881051077,
sounds/gauche.ogg,0.7,,0,0,0,0,0,39,39,19,,,,,345.490071019996,344.8040281999856,,,,001,2021_May_03_0939,list_pa,2021.1.4,60.78620881051077,
sounds/droite.ogg,0.7,,0,0,0,0,0,40,40,34,,,,,346.99027441997316,346.30537529999856,,,,001,2021_May_03_0939,list_pa,2021.1.4,60.78620881051077,
sounds/droite.ogg,0.7,,0,0,0,0,0,41,41,49,,,,,348.4905240200111,None,,,,001,2021_May_03_0939,list_pa,2021.1.4,60.78620881051077,
sounds/gauche.ogg,0.7,,0,0,0,0,0,42,42,0,,,,,349.9914968199679,349.3055056000012,,,,001,2021_May_03_0939,list_pa,2021.1.4,60.78620881051077,
sounds/gauche.ogg,0.7,,0,0,0,0,0,43,43,9,,,,,351.4909180199844,350.8062829999835,,,,001,2021_May_03_0939,list_pa,2021.1.4,60.78620881051077,
sounds/gauche.ogg,0.7,,0,0,0,0,0,44,44,23,,,,,352.9914042200195,352.30606849998003,,,,001,2021_May_03_0939,list_pa,2021.1.4,60.78620881051077,
sounds/droite.ogg,0.7,,0,0,0,0,0,45,45,41,,,,,354.49210161997473,353.8079487999785,,,,001,2021_May_03_0939,list_pa,2021.1.4,60.78620881051077,
sounds/gauche.ogg,0.7,,0,0,0,0,0,46,46,18,,,,,355.9919154200121,355.3065738999867,,,,001,2021_May_03_0939,list_pa,2021.1.4,60.78620881051077,
sounds/droite.ogg,0.7,,0,0,0,0,0,47,47,46,,,,,357.4925871200045,356.8068781999755,,,,001,2021_May_03_0939,list_pa,2021.1.4,60.78620881051077,
sounds/gauche.ogg,0.7,,0,0,0,0,0,48,48,5,,,,,358.99373261999574,358.30825619999086,,,,001,2021_May_03_0939,list_pa,2021.1.4,60.78620881051077,
sounds/gauche.ogg,0.7,,0,0,0,0,0,49,49,1,,,,,360.49291712001434,359.808534700016,,,,001,2021_May_03_0939,list_pa,2021.1.4,60.78620881051077,
,,30,0,0,0,0,,,,,0,0,0,0,,,361.40066240000306,None,,001,2021_May_03_0939,list_pa,2021.1.4,60.78620881051077,
,,29,0,0,0,0,,,,,0,1,1,1,,,362.3260409000213,None,,001,2021_May_03_0939,list_pa,2021.1.4,60.78620881051077,
,,28,0,0,0,0,,,,,0,2,2,2,,,363.32590469997376,None,,001,2021_May_03_0939,list_pa,2021.1.4,60.78620881051077,
,,27,0,0,0,0,,,,,0,3,3,3,,,364.3259213999845,None,,001,2021_May_03_0939,list_pa,2021.1.4,60.78620881051077,
,,26,0,0,0,0,,,,,0,4,4,4,,,365.3259283999796,None,,001,2021_May_03_0939,list_pa,2021.1.4,60.78620881051077,
,,25,0,0,0,0,,,,,0,5,5,5,,,366.32644309999887,None,,001,2021_May_03_0939,list_pa,2021.1.4,60.78620881051077,
,,24,0,0,0,0,,,,,0,6,6,6,,,367.3260480000172,None,,001,2021_May_03_0939,list_pa,2021.1.4,60.78620881051077,
,,23,0,0,0,0,,,,,0,7,7,7,,,368.3269952000119,None,,001,2021_May_03_0939,list_pa,2021.1.4,60.78620881051077,
,,22,0,0,0,0,,,,,0,8,8,8,,,369.3269269000157,None,,001,2021_May_03_0939,list_pa,2021.1.4,60.78620881051077,
,,21,0,0,0,0,,,,,0,9,9,9,,,370.3271528999903,None,,001,2021_May_03_0939,list_pa,2021.1.4,60.78620881051077,
,,20,0,0,0,0,,,,,0,10,10,10,,,371.327294000017,None,,001,2021_May_03_0939,list_pa,2021.1.4,60.78620881051077,
,,19,0,0,0,0,,,,,0,11,11,11,,,372.32806460000575,None,,001,2021_May_03_0939,list_pa,2021.1.4,60.78620881051077,
,,18,0,0,0,0,,,,,0,12,12,12,,,373.3279741000151,None,,001,2021_May_03_0939,list_pa,2021.1.4,60.78620881051077,
,,17,0,0,0,0,,,,,0,13,13,13,,,374.3285716000246,None,,001,2021_May_03_0939,list_pa,2021.1.4,60.78620881051077,
,,16,0,0,0,0,,,,,0,14,14,14,,,375.32846689998405,None,,001,2021_May_03_0939,list_pa,2021.1.4,60.78620881051077,
,,15,0,0,0,0,,,,,0,15,15,15,,,376.3277514000074,None,,001,2021_May_03_0939,list_pa,2021.1.4,60.78620881051077,
,,14,0,0,0,0,,,,,0,16,16,16,,,377.3281976999715,None,,001,2021_May_03_0939,list_pa,2021.1.4,60.78620881051077,
,,13,0,0,0,0,,,,,0,17,17,17,,,378.31199720001314,None,,001,2021_May_03_0939,list_pa,2021.1.4,60.78620881051077,
,,12,0,0,0,0,,,,,0,18,18,18,,,379.31181530002505,None,,001,2021_May_03_0939,list_pa,2021.1.4,60.78620881051077,
,,11,0,0,0,0,,,,,0,19,19,19,,,380.3119799999986,None,,001,2021_May_03_0939,list_pa,2021.1.4,60.78620881051077,
,,10,0,0,0,0,,,,,0,20,20,20,,,381.31218780000927,None,,001,2021_May_03_0939,list_pa,2021.1.4,60.78620881051077,
,,9,0,0,0,0,,,,,0,21,21,21,,,382.3127152000088,None,,001,2021_May_03_0939,list_pa,2021.1.4,60.78620881051077,
,,8,0,0,0,0,,,,,0,22,22,22,,,383.3131145000225,None,,001,2021_May_03_0939,list_pa,2021.1.4,60.78620881051077,
,,7,0,0,0,0,,,,,0,23,23,23,,,384.3131649999996,None,,001,2021_May_03_0939,list_pa,2021.1.4,60.78620881051077,
,,6,0,0,0,0,,,,,0,24,24,24,,,385.3135025000083,None,,001,2021_May_03_0939,list_pa,2021.1.4,60.78620881051077,
,,5,0,0,0,0,,,,,0,25,25,25,,,386.31376679998357,None,,001,2021_May_03_0939,list_pa,2021.1.4,60.78620881051077,
,,4,0,0,0,0,,,,,0,26,26,26,,,387.3137211999856,None,,001,2021_May_03_0939,list_pa,2021.1.4,60.78620881051077,
,,3,0,0,0,0,,,,,0,27,27,27,,,388.31361890002154,None,,001,2021_May_03_0939,list_pa,2021.1.4,60.78620881051077,
,,2,0,0,0,0,,,,,0,28,28,28,,,389.31405089999316,None,,001,2021_May_03_0939,list_pa,2021.1.4,60.78620881051077,
,,1,0,0,0,0,,,,,0,29,29,29,,,390.3142778999754,None,,001,2021_May_03_0939,list_pa,2021.1.4,60.78620881051077,
,,0,0,0,0,0,,,,,0,30,30,30,,,391.31452800001716,None,,001,2021_May_03_0939,list_pa,2021.1.4,60.78620881051077,
,,,0,0,0,0,,,,,,,,,,,,,,001,2021_May_03_0939,list_pa,2021.1.4,60.78620881051077,
sounds/gauche.ogg,0.7,,1,0,1,0,0,0,0,4,,,,,393.03291561998196,None,,,,001,2021_May_03_0939,list_pa,2021.1.4,60.78620881051077,
sounds/droite.ogg,0.7,,1,0,1,0,0,1,1,47,,,,,394.53291771999795,393.84837979997974,,,,001,2021_May_03_0939,list_pa,2021.1.4,60.78620881051077,
sounds/gauche.ogg,0.7,,1,0,1,0,0,2,2,6,,,,,396.0342083199881,None,,,,001,2021_May_03_0939,list_pa,2021.1.4,60.78620881051077,
sounds/gauche.ogg,0.7,,1,0,1,0,0,3,3,12,,,,,397.53489621998744,396.84880739997607,,,,001,2021_May_03_0939,list_pa,2021.1.4,60.78620881051077,
sounds/droite.ogg,0.7,,1,0,1,0,0,4,4,43,,,,,399.0349949199823,398.3488648000057,,,,001,2021_May_03_0939,list_pa,2021.1.4,60.78620881051077,
sounds/gauche.ogg,0.7,,1,0,1,0,0,5,5,5,,,,,400.53445171997885,399.84969379997347,,,,001,2021_May_03_0939,list_pa,2021.1.4,60.78620881051077,
sounds/gauche.ogg,0.7,,1,0,1,0,0,6,6,19,,,,,402.0351543199737,None,,,,001,2021_May_03_0939,list_pa,2021.1.4,60.78620881051077,
sounds/droite.ogg,0.7,,1,0,1,0,0,7,7,26,,,,,403.53501911999194,402.84986949997256,,,,001,2021_May_03_0939,list_pa,2021.1.4,60.78620881051077,
sounds/droite.ogg,0.7,,1,0,1,0,0,8,8,28,,,,,405.0357225199929,404.35011820000364,,,,001,2021_May_03_0939,list_pa,2021.1.4,60.78620881051077,
sounds/gauche.ogg,0.7,,1,0,1,0,0,9,9,17,,,,,406.5359196199803,405.8505848000059,,,,001,2021_May_03_0939,list_pa,2021.1.4,60.78620881051077,
sounds/droite.ogg,0.7,,1,0,1,0,0,10,10,30,,,,,408.03313432001744,407.3511291000177,,,,001,2021_May_03_0939,list_pa,2021.1.4,60.78620881051077,
sounds/gauche.ogg,0.7,,1,0,1,0,0,11,11,16,,,,,409.53580172001386,408.8505226999987,,,,001,2021_May_03_0939,list_pa,2021.1.4,60.78620881051077,
sounds/gauche.ogg,0.7,,1,0,1,0,0,12,12,22,,,,,411.03644591997147,410.35164150001947,,,,001,2021_May_03_0939,list_pa,2021.1.4,60.78620881051077,
sounds/droite.ogg,0.7,,1,0,1,0,0,13,13,35,,,,,412.5368373199832,411.8521777999704,,,,001,2021_May_03_0939,list_pa,2021.1.4,60.78620881051077,
sounds/droite.ogg,0.7,,1,0,1,0,0,14,14,40,,,,,414.0371581199812,413.35253159998683,,,,001,2021_May_03_0939,list_pa,2021.1.4,60.78620881051077,
sounds/gauche.ogg,0.7,,1,0,1,0,0,15,15,9,,,,,415.53735282000855,414.85226299997885,,,,001,2021_May_03_0939,list_pa,2021.1.4,60.78620881051077,
sounds/gauche.ogg,0.7,,1,0,1,0,0,16,16,20,,,,,417.03727881996895,416.35307100001955,,,,001,2021_May_03_0939,list_pa,2021.1.4,60.78620881051077,
sounds/droite.ogg,0.7,,1,0,1,0,0,17,17,37,,,,,418.537850420014,417.8532110999804,,,,001,2021_May_03_0939,list_pa,2021.1.4,60.78620881051077,
sounds/gauche.ogg,0.7,,1,0,1,0,0,18,18,14,,,,,420.0378859199933,419.35387869999977,,,,001,2021_May_03_0939,list_pa,2021.1.4,60.78620881051077,
sounds/droite.ogg,0.7,,1,0,1,0,0,19,19,39,,,,,421.53945261999036,420.85343399998965,,,,001,2021_May_03_0939,list_pa,2021.1.4,60.78620881051077,
sounds/droite.ogg,0.7,,1,0,1,0,0,20,20,41,,,,,423.038560420007,None,,,,001,2021_May_03_0939,list_pa,2021.1.4,60.78620881051077,
sounds/droite.ogg,0.7,,1,0,1,0,0,21,21,33,,,,,424.5390338200028,423.85431570000947,,,,001,2021_May_03_0939,list_pa,2021.1.4,60.78620881051077,
sounds/droite.ogg,0.7,,1,0,1,0,0,22,22,44,,,,,426.0399775199709,425.35540679999394,,,,001,2021_May_03_0939,list_pa,2021.1.4,60.78620881051077,
sounds/gauche.ogg,0.7,,1,0,1,0,0,23,23,7,,,,,427.5395787200192,426.8551514999708,,,,001,2021_May_03_0939,list_pa,2021.1.4,60.78620881051077,
sounds/gauche.ogg,0.7,,1,0,1,0,0,24,24,2,,,,,429.0401984199649,428.35493929998484,,,,001,2021_May_03_0939,list_pa,2021.1.4,60.78620881051077,
sounds/droite.ogg,0.7,,1,0,1,0,0,25,25,36,,,,,430.5403169199941,429.8557398999692,,,,001,2021_May_03_0939,list_pa,2021.1.4,60.78620881051077,
sounds/gauche.ogg,0.7,,1,0,1,0,0,26,26,23,,,,,432.04081091997216,431.35587869997835,,,,001,2021_May_03_0939,list_pa,2021.1.4,60.78620881051077,
sounds/droite.ogg,0.7,,1,0,1,0,0,27,27,31,,,,,433.55742742001314,None,,,,001,2021_May_03_0939,list_pa,2021.1.4,60.78620881051077,
sounds/droite.ogg,0.7,,1,0,1,0,0,28,28,32,,,,,435.0577621200006,434.37344719999237,,,,001,2021_May_03_0939,list_pa,2021.1.4,60.78620881051077,
sounds/gauche.ogg,0.7,,1,0,1,0,0,29,29,13,,,,,436.5584397199797,435.873540200002,,,,001,2021_May_03_0939,list_pa,2021.1.4,60.78620881051077,
sounds/gauche.ogg,0.7,,1,0,1,0,0,30,30,21,,,,,438.05870551996634,None,,,,001,2021_May_03_0939,list_pa,2021.1.4,60.78620881051077,
sounds/droite.ogg,0.7,,1,0,1,0,0,31,31,34,,,,,439.5759622199927,None,,,,001,2021_May_03_0939,list_pa,2021.1.4,60.78620881051077,
sounds/gauche.ogg,0.7,,1,0,1,0,0,32,32,10,,,,,441.0758472199901,440.3901971000014,,,,001,2021_May_03_0939,list_pa,2021.1.4,60.78620881051077,
sounds/droite.ogg,0.7,,1,0,1,0,0,33,33,49,,,,,442.5760680199834,441.8910877999733,,,,001,2021_May_03_0939,list_pa,2021.1.4,60.78620881051077,
sounds/droite.ogg,0.7,,1,0,1,0,0,34,34,46,,,,,444.0769269200042,443.39176690002205,,,,001,2021_May_03_0939,list_pa,2021.1.4,60.78620881051077,
sounds/gauche.ogg,0.7,,1,0,1,0,0,35,35,24,,,,,445.57691152000336,444.8920346000232,,,,001,2021_May_03_0939,list_pa,2021.1.4,60.78620881051077,
sounds/droite.ogg,0.7,,1,0,1,0,0,36,36,25,,,,,447.07704531997445,446.3917963000131,,,,001,2021_May_03_0939,list_pa,2021.1.4,60.78620881051077,
sounds/gauche.ogg,0.7,,1,0,1,0,0,37,37,8,,,,,448.577185219992,447.8929460999789,,,,001,2021_May_03_0939,list_pa,2021.1.4,60.78620881051077,
sounds/gauche.ogg,0.7,,1,0,1,0,0,38,38,0,,,,,450.0778545199661,449.39307629998075,,,,001,2021_May_03_0939,list_pa,2021.1.4,60.78620881051077,
sounds/droite.ogg,0.7,,1,0,1,0,0,39,39,29,,,,,451.57747451998296,450.8936073000077,,,,001,2021_May_03_0939,list_pa,2021.1.4,60.78620881051077,
sounds/droite.ogg,0.7,,1,0,1,0,0,40,40,48,,,,,453.061758319987,None,,,,001,2021_May_03_0939,list_pa,2021.1.4,60.78620881051077,
sounds/droite.ogg,0.7,,1,0,1,0,0,41,41,42,,,,,454.5615338199656,None,,,,001,2021_May_03_0939,list_pa,2021.1.4,60.78620881051077,
sounds/droite.ogg,0.7,,1,0,1,0,0,42,42,45,,,,,456.0619105199818,455.3785080999951,,,,001,2021_May_03_0939,list_pa,2021.1.4,60.78620881051077,
sounds/gauche.ogg,0.7,,1,0,1,0,0,43,43,11,,,,,457.56354192000583,456.8780459999689,,,,001,2021_May_03_0939,list_pa,2021.1.4,60.78620881051077,
sounds/gauche.ogg,0.7,,1,0,1,0,0,44,44,1,,,,,459.06249741996874,458.3781578000053,,,,001,2021_May_03_0939,list_pa,2021.1.4,60.78620881051077,
sounds/gauche.ogg,0.7,,1,0,1,0,0,45,45,15,,,,,460.5634692199761,459.8787414999679,,,,001,2021_May_03_0939,list_pa,2021.1.4,60.78620881051077,
sounds/droite.ogg,0.7,,1,0,1,0,0,46,46,27,,,,,462.063505820022,None,,,,001,2021_May_03_0939,list_pa,2021.1.4,60.78620881051077,
sounds/gauche.ogg,0.7,,1,0,1,0,0,47,47,3,,,,,463.56349191997435,462.87885360000655,,,,001,2021_May_03_0939,list_pa,2021.1.4,60.78620881051077,
sounds/gauche.ogg,0.7,,1,0,1,0,0,48,48,18,,,,,465.0641384200077,464.3793700999813,,,,001,2021_May_03_0939,list_pa,2021.1.4,60.78620881051077,
sounds/droite.ogg,0.7,,1,0,1,0,0,49,49,38,,,,,466.5640798199689,465.8793988000252,,,,001,2021_May_03_0939,list_pa,2021.1.4,60.78620881051077,
,,30,1,0,1,0,,,,,0,0,0,0,,,467.3953865999938,None,,001,2021_May_03_0939,list_pa,2021.1.4,60.78620881051077,
,,29,1,0,1,0,,,,,0,1,1,1,,,468.3971820999868,None,,001,2021_May_03_0939,list_pa,2021.1.4,60.78620881051077,
,,28,1,0,1,0,,,,,0,2,2,2,,,469.3971220999956,None,,001,2021_May_03_0939,list_pa,2021.1.4,60.78620881051077,
,,27,1,0,1,0,,,,,0,3,3,3,,,470.39725059998455,None,,001,2021_May_03_0939,list_pa,2021.1.4,60.78620881051077,
,,26,1,0,1,0,,,,,0,4,4,4,,,471.3973878999823,None,,001,2021_May_03_0939,list_pa,2021.1.4,60.78620881051077,
,,25,1,0,1,0,,,,,0,5,5,5,,,472.39756599999964,None,,001,2021_May_03_0939,list_pa,2021.1.4,60.78620881051077,
,,24,1,0,1,0,,,,,0,6,6,6,,,473.39795999997295,None,,001,2021_May_03_0939,list_pa,2021.1.4,60.78620881051077,
,,23,1,0,1,0,,,,,0,7,7,7,,,474.39874029997736,None,,001,2021_May_03_0939,list_pa,2021.1.4,60.78620881051077,
,,22,1,0,1,0,,,,,0,8,8,8,,,475.3985200999887,None,,001,2021_May_03_0939,list_pa,2021.1.4,60.78620881051077,
,,21,1,0,1,0,,,,,0,9,9,9,,,476.3987807999947,None,,001,2021_May_03_0939,list_pa,2021.1.4,60.78620881051077,
,,20,1,0,1,0,,,,,0,10,10,10,,,477.398433299968,None,,001,2021_May_03_0939,list_pa,2021.1.4,60.78620881051077,
,,19,1,0,1,0,,,,,0,11,11,11,,,478.3991241999902,None,,001,2021_May_03_0939,list_pa,2021.1.4,60.78620881051077,
,,18,1,0,1,0,,,,,0,12,12,12,,,479.398927000002,None,,001,2021_May_03_0939,list_pa,2021.1.4,60.78620881051077,
,,17,1,0,1,0,,,,,0,13,13,13,,,480.3990244999877,None,,001,2021_May_03_0939,list_pa,2021.1.4,60.78620881051077,
,,16,1,0,1,0,,,,,0,14,14,14,,,481.39927100000205,None,,001,2021_May_03_0939,list_pa,2021.1.4,60.78620881051077,
,,15,1,0,1,0,,,,,0,15,15,15,,,482.39958560001105,None,,001,2021_May_03_0939,list_pa,2021.1.4,60.78620881051077,
,,14,1,0,1,0,,,,,0,16,16,16,,,483.3998402999714,None,,001,2021_May_03_0939,list_pa,2021.1.4,60.78620881051077,
,,13,1,0,1,0,,,,,0,17,17,17,,,484.38329099997645,None,,001,2021_May_03_0939,list_pa,2021.1.4,60.78620881051077,
,,12,1,0,1,0,,,,,0,18,18,18,,,485.3997657999862,None,,001,2021_May_03_0939,list_pa,2021.1.4,60.78620881051077,
,,11,1,0,1,0,,,,,0,19,19,19,,,486.40011699998286,None,,001,2021_May_03_0939,list_pa,2021.1.4,60.78620881051077,
,,10,1,0,1,0,,,,,0,20,20,20,,,487.4001333999913,None,,001,2021_May_03_0939,list_pa,2021.1.4,60.78620881051077,
,,9,1,0,1,0,,,,,0,21,21,21,,,488.3841104999883,None,,001,2021_May_03_0939,list_pa,2021.1.4,60.78620881051077,
,,8,1,0,1,0,,,,,0,22,22,22,,,489.38472690002527,None,,001,2021_May_03_0939,list_pa,2021.1.4,60.78620881051077,
,,7,1,0,1,0,,,,,0,23,23,23,,,490.38488169998163,None,,001,2021_May_03_0939,list_pa,2021.1.4,60.78620881051077,
,,6,1,0,1,0,,,,,0,24,24,24,,,491.38481359998696,None,,001,2021_May_03_0939,list_pa,2021.1.4,60.78620881051077,
,,5,1,0,1,0,,,,,0,25,25,25,,,492.3851877999841,None,,001,2021_May_03_0939,list_pa,2021.1.4,60.78620881051077,
,,4,1,0,1,0,,,,,0,26,26,26,,,493.38537999999244,None,,001,2021_May_03_0939,list_pa,2021.1.4,60.78620881051077,
,,3,1,0,1,0,,,,,0,27,27,27,,,494.38539710000623,None,,001,2021_May_03_0939,list_pa,2021.1.4,60.78620881051077,
,,2,1,0,1,0,,,,,0,28,28,28,,,495.3853862999822,None,,001,2021_May_03_0939,list_pa,2021.1.4,60.78620881051077,
,,1,1,0,1,0,,,,,0,29,29,29,,,496.3854382999707,None,,001,2021_May_03_0939,list_pa,2021.1.4,60.78620881051077,
,,0,1,0,1,0,,,,,0,30,30,30,,,497.3860308000003,None,,001,2021_May_03_0939,list_pa,2021.1.4,60.78620881051077,
,,,1,0,1,0,,,,,,,,,,,,,,001,2021_May_03_0939,list_pa,2021.1.4,60.78620881051077,
sounds/gauche.ogg,0.7,,2,0,2,0,0,0,0,17,,,,,499.1051253199927,None,,,,001,2021_May_03_0939,list_pa,2021.1.4,60.78620881051077,
sounds/gauche.ogg,0.7,,2,0,2,0,0,1,1,23,,,,,500.6054681199836,499.9192211999907,,,,001,2021_May_03_0939,list_pa,2021.1.4,60.78620881051077,
sounds/droite.ogg,0.7,,2,0,2,0,0,2,2,49,,,,,502.1050094199833,501.4200036000111,,,,001,2021_May_03_0939,list_pa,2021.1.4,60.78620881051077,
sounds/gauche.ogg,0.7,,2,0,2,0,0,3,3,20,,,,,503.6052103199996,502.9206165000214,,,,001,2021_May_03_0939,list_pa,2021.1.4,60.78620881051077,
sounds/droite.ogg,0.7,,2,0,2,0,0,4,4,35,,,,,505.10609641999474,504.4205433999887,,,,001,2021_May_03_0939,list_pa,2021.1.4,60.78620881051077,
sounds/gauche.ogg,0.7,,2,0,2,0,0,5,5,3,,,,,506.60613752001666,505.9207204999984,,,,001,2021_May_03_0939,list_pa,2021.1.4,60.78620881051077,
sounds/gauche.ogg,0.7,,2,0,2,0,0,6,6,4,,,,,508.1062680200208,507.42168939998373,,,,001,2021_May_03_0939,list_pa,2021.1.4,60.78620881051077,
sounds/droite.ogg,0.7,,2,0,2,0,0,7,7,48,,,,,509.6064311199822,508.9216792000225,,,,001,2021_May_03_0939,list_pa,2021.1.4,60.78620881051077,
sounds/droite.ogg,0.7,,2,0,2,0,0,8,8,32,,,,,511.1068924200023,510.42227849998744,,,,001,2021_May_03_0939,list_pa,2021.1.4,60.78620881051077,
sounds/gauche.ogg,0.7,,2,0,2,0,0,9,9,24,,,,,512.6072075200151,None,,,,001,2021_May_03_0939,list_pa,2021.1.4,60.78620881051077,
sounds/gauche.ogg,0.7,,2,0,2,0,0,10,10,13,,,,,514.1072906200076,513.4229220999987,,,,001,2021_May_03_0939,list_pa,2021.1.4,60.78620881051077,
sounds/droite.ogg,0.7,,2,0,2,0,0,11,11,27,,,,,515.6073948199861,514.9231134000001,,,,001,2021_May_03_0939,list_pa,2021.1.4,60.78620881051077,
sounds/gauche.ogg,0.7,,2,0,2,0,0,12,12,18,,,,,517.107779520005,None,,,,001,2021_May_03_0939,list_pa,2021.1.4,60.78620881051077,
sounds/droite.ogg,0.7,,2,0,2,0,0,13,13,30,,,,,518.6084602200077,517.9233370000147,,,,001,2021_May_03_0939,list_pa,2021.1.4,60.78620881051077,
sounds/droite.ogg,0.7,,2,0,2,0,0,14,14,36,,,,,520.1080158199999,519.4240900999866,,,,001,2021_May_03_0939,list_pa,2021.1.4,60.78620881051077,
sounds/droite.ogg,0.7,,2,0,2,0,0,15,15,47,,,,,521.6089499200112,520.924045199994,,,,001,2021_May_03_0939,list_pa,2021.1.4,60.78620881051077,
sounds/gauche.ogg,0.7,,2,0,2,0,0,16,16,14,,,,,523.1259570199996,None,,,,001,2021_May_03_0939,list_pa,2021.1.4,60.78620881051077,
sounds/droite.ogg,0.7,,2,0,2,0,0,17,17,46,,,,,524.6260299199727,523.9417367000133,,,,001,2021_May_03_0939,list_pa,2021.1.4,60.78620881051077,
sounds/gauche.ogg,0.7,,2,0,2,0,0,18,18,8,,,,,526.1265062199906,525.4404773999704,,,,001,2021_May_03_0939,list_pa,2021.1.4,60.78620881051077,
sounds/droite.ogg,0.7,,2,0,2,0,0,19,19,33,,,,,527.6269019199768,526.9419368000235,,,,001,2021_May_03_0939,list_pa,2021.1.4,60.78620881051077,
sounds/droite.ogg,0.7,,2,0,2,0,0,20,20,34,,,,,529.127025819989,528.4421881000162,,,,001,2021_May_03_0939,list_pa,2021.1.4,60.78620881051077,
sounds/droite.ogg,0.7,,2,0,2,0,0,21,21,42,,,,,530.6271575200022,529.9426521999994,,,,001,2021_May_03_0939,list_pa,2021.1.4,60.78620881051077,
sounds/droite.ogg,0.7,,2,0,2,0,0,22,22,29,,,,,532.127076020022,None,,,,001,2021_May_03_0939,list_pa,2021.1.4,60.78620881051077,
sounds/droite.ogg,0.7,,2,0,2,0,0,23,23,28,,,,,533.6277337199659,532.9429141000146,,,,001,2021_May_03_0939,list_pa,2021.1.4,60.78620881051077,
sounds/gauche.ogg,0.7,,2,0,2,0,0,24,24,22,,,,,535.1275945200119,534.4435999999987,,,,001,2021_May_03_0939,list_pa,2021.1.4,60.78620881051077,
sounds/gauche.ogg,0.7,,2,0,2,0,0,25,25,5,,,,,536.6279017199646,535.944142399996,,,,001,2021_May_03_0939,list_pa,2021.1.4,60.78620881051077,
sounds/gauche.ogg,0.7,,2,0,2,0,0,26,26,1,,,,,538.1289741199813,537.4441272999975,,,,001,2021_May_03_0939,list_pa,2021.1.4,60.78620881051077,
sounds/gauche.ogg,0.7,,2,0,2,0,0,27,27,15,,,,,539.6289426199743,538.9445351000177,,,,001,2021_May_03_0939,list_pa,2021.1.4,60.78620881051077,
sounds/gauche.ogg,0.7,,2,0,2,0,0,28,28,21,,,,,541.128923320002,540.4450335999718,,,,001,2021_May_03_0939,list_pa,2021.1.4,60.78620881051077,
sounds/droite.ogg,0.7,,2,0,2,0,0,29,29,39,,,,,542.6295053200098,541.9436931000091,,,,001,2021_May_03_0939,list_pa,2021.1.4,60.78620881051077,
sounds/droite.ogg,0.7,,2,0,2,0,0,30,30,40,,,,,544.1297859199927,543.4453500999953,,,,001,2021_May_03_0939,list_pa,2021.1.4,60.78620881051077,
sounds/droite.ogg,0.7,,2,0,2,0,0,31,31,37,,,,,545.6303846200113,544.9457112000091,,,,001,2021_May_03_0939,list_pa,2021.1.4,60.78620881051077,
sounds/gauche.ogg,0.7,,2,0,2,0,0,32,32,0,,,,,547.1306705199764,546.445791599981,,,,001,2021_May_03_0939,list_pa,2021.1.4,60.78620881051077,
sounds/gauche.ogg,0.7,,2,0,2,0,0,33,33,9,,,,,548.631156120007,None,,,,001,2021_May_03_0939,list_pa,2021.1.4,60.78620881051077,
sounds/droite.ogg,0.7,,2,0,2,0,0,34,34,44,,,,,550.1312074199901,549.4462395000155,,,,001,2021_May_03_0939,list_pa,2021.1.4,60.78620881051077,
sounds/droite.ogg,0.7,,2,0,2,0,0,35,35,25,,,,,551.6317660199944,550.9471215999802,,,,001,2021_May_03_0939,list_pa,2021.1.4,60.78620881051077,
sounds/gauche.ogg,0.7,,2,0,2,0,0,36,36,19,,,,,553.1314557200182,552.4472493000212,,,,001,2021_May_03_0939,list_pa,2021.1.4,60.78620881051077,
sounds/droite.ogg,0.7,,2,0,2,0,0,37,37,43,,,,,554.6486120199785,None,,,,001,2021_May_03_0939,list_pa,2021.1.4,60.78620881051077,
sounds/droite.ogg,0.7,,2,0,2,0,0,38,38,41,,,,,556.1488098199712,555.4647175999708,,,,001,2021_May_03_0939,list_pa,2021.1.4,60.78620881051077,
sounds/droite.ogg,0.7,,2,0,2,0,0,39,39,31,,,,,557.6493981199689,556.964049400005,,,,001,2021_May_03_0939,list_pa,2021.1.4,60.78620881051077,
sounds/droite.ogg,0.7,,2,0,2,0,0,40,40,38,,,,,559.1498268199736,558.4651114000008,,,,001,2021_May_03_0939,list_pa,2021.1.4,60.78620881051077,
sounds/droite.ogg,0.7,,2,0,2,0,0,41,41,45,,,,,560.6501028199797,559.9653346000123,,,,001,2021_May_03_0939,list_pa,2021.1.4,60.78620881051077,
sounds/gauche.ogg,0.7,,2,0,2,0,0,42,42,6,,,,,562.1501352199936,561.4656706000096,,,,001,2021_May_03_0939,list_pa,2021.1.4,60.78620881051077,
sounds/gauche.ogg,0.7,,2,0,2,0,0,43,43,11,,,,,563.6508254200104,562.9660527000087,,,,001,2021_May_03_0939,list_pa,2021.1.4,60.78620881051077,
sounds/gauche.ogg,0.7,,2,0,2,0,0,44,44,7,,,,,565.1509904199862,564.4661843000213,,,,001,2021_May_03_0939,list_pa,2021.1.4,60.78620881051077,
sounds/gauche.ogg,0.7,,2,0,2,0,0,45,45,10,,,,,566.6513645199826,565.966646099987,,,,001,2021_May_03_0939,list_pa,2021.1.4,60.78620881051077,
sounds/gauche.ogg,0.7,,2,0,2,0,0,46,46,16,,,,,568.1514882199932,None,,,,001,2021_May_03_0939,list_pa,2021.1.4,60.78620881051077,
sounds/gauche.ogg,0.7,,2,0,2,0,0,47,47,12,,,,,569.6519640200073,568.9668715000153,,,,001,2021_May_03_0939,list_pa,2021.1.4,60.78620881051077,
sounds/droite.ogg,0.7,,2,0,2,0,0,48,48,26,,,,,571.1523510199855,570.4665763999801,,,,001,2021_May_03_0939,list_pa,2021.1.4,60.78620881051077,
sounds/gauche.ogg,0.7,,2,0,2,0,0,49,49,2,,,,,572.6526877199882,571.9680409000139,,,,001,2021_May_03_0939,list_pa,2021.1.4,60.78620881051077,
,,30,2,0,2,0,,,,,0,0,0,0,,,573.500836799969,None,,001,2021_May_03_0939,list_pa,2021.1.4,60.78620881051077,
,,29,2,0,2,0,,,,,0,1,1,1,,,574.4849842999829,None,,001,2021_May_03_0939,list_pa,2021.1.4,60.78620881051077,
,,28,2,0,2,0,,,,,0,2,2,2,,,575.485103700019,None,,001,2021_May_03_0939,list_pa,2021.1.4,60.78620881051077,
,,27,2,0,2,0,,,,,0,3,3,3,,,576.485361900006,None,,001,2021_May_03_0939,list_pa,2021.1.4,60.78620881051077,
,,26,2,0,2,0,,,,,0,4,4,4,,,577.4853098000167,None,,001,2021_May_03_0939,list_pa,2021.1.4,60.78620881051077,
,,25,2,0,2,0,,,,,0,5,5,5,,,578.4860636999947,None,,001,2021_May_03_0939,list_pa,2021.1.4,60.78620881051077,
,,24,2,0,2,0,,,,,0,6,6,6,,,579.4860782999895,None,,001,2021_May_03_0939,list_pa,2021.1.4,60.78620881051077,
,,23,2,0,2,0,,,,,0,7,7,7,,,580.486539400008,None,,001,2021_May_03_0939,list_pa,2021.1.4,60.78620881051077,
,,22,2,0,2,0,,,,,0,8,8,8,,,581.4863982999814,None,,001,2021_May_03_0939,list_pa,2021.1.4,60.78620881051077,
,,21,2,0,2,0,,,,,0,9,9,9,,,582.4866763000027,None,,001,2021_May_03_0939,list_pa,2021.1.4,60.78620881051077,
,,20,2,0,2,0,,,,,0,10,10,10,,,583.4865039999713,None,,001,2021_May_03_0939,list_pa,2021.1.4,60.78620881051077,
,,19,2,0,2,0,,,,,0,11,11,11,,,584.4872648000019,None,,001,2021_May_03_0939,list_pa,2021.1.4,60.78620881051077,
,,18,2,0,2,0,,,,,0,12,12,12,,,585.4876825999818,None,,001,2021_May_03_0939,list_pa,2021.1.4,60.78620881051077,
,,17,2,0,2,0,,,,,0,13,13,13,,,586.4881601000088,None,,001,2021_May_03_0939,list_pa,2021.1.4,60.78620881051077,
,,16,2,0,2,0,,,,,0,14,14,14,,,587.4885911999736,None,,001,2021_May_03_0939,list_pa,2021.1.4,60.78620881051077,
,,15,2,0,2,0,,,,,0,15,15,15,,,588.4885060000233,None,,001,2021_May_03_0939,list_pa,2021.1.4,60.78620881051077,
,,14,2,0,2,0,,,,,0,16,16,16,,,589.4885188000044,None,,001,2021_May_03_0939,list_pa,2021.1.4,60.78620881051077,
,,13,2,0,2,0,,,,,0,17,17,17,,,590.4893212000025,None,,001,2021_May_03_0939,list_pa,2021.1.4,60.78620881051077,
,,12,2,0,2,0,,,,,0,18,18,18,,,591.4718844000017,None,,001,2021_May_03_0939,list_pa,2021.1.4,60.78620881051077,
,,11,2,0,2,0,,,,,0,19,19,19,,,592.472059199994,None,,001,2021_May_03_0939,list_pa,2021.1.4,60.78620881051077,
,,10,2,0,2,0,,,,,0,20,20,20,,,593.4719289999921,None,,001,2021_May_03_0939,list_pa,2021.1.4,60.78620881051077,
,,9,2,0,2,0,,,,,0,21,21,21,,,594.4722142000101,None,,001,2021_May_03_0939,list_pa,2021.1.4,60.78620881051077,
,,8,2,0,2,0,,,,,0,22,22,22,,,595.4720987000037,None,,001,2021_May_03_0939,list_pa,2021.1.4,60.78620881051077,
,,7,2,0,2,0,,,,,0,23,23,23,,,596.4719587999862,None,,001,2021_May_03_0939,list_pa,2021.1.4,60.78620881051077,
,,6,2,0,2,0,,,,,0,24,24,24,,,597.4729499000241,None,,001,2021_May_03_0939,list_pa,2021.1.4,60.78620881051077,
,,5,2,0,2,0,,,,,0,25,25,25,,,598.4731047999812,None,,001,2021_May_03_0939,list_pa,2021.1.4,60.78620881051077,
,,4,2,0,2,0,,,,,0,26,26,26,,,599.4735955999931,None,,001,2021_May_03_0939,list_pa,2021.1.4,60.78620881051077,
,,3,2,0,2,0,,,,,0,27,27,27,,,600.4733286999981,None,,001,2021_May_03_0939,list_pa,2021.1.4,60.78620881051077,
,,2,2,0,2,0,,,,,0,28,28,28,,,601.474052399979,None,,001,2021_May_03_0939,list_pa,2021.1.4,60.78620881051077,
,,1,2,0,2,0,,,,,0,29,29,29,,,602.457190199988,None,,001,2021_May_03_0939,list_pa,2021.1.4,60.78620881051077,
,,0,2,0,2,0,,,,,0,30,30,30,,,603.4732465000125,None,,001,2021_May_03_0939,list_pa,2021.1.4,60.78620881051077,
,,,2,0,2,0,,,,,,,,,,,,,,001,2021_May_03_0939,list_pa,2021.1.4,60.78620881051077,
sounds/gauche.ogg,0.7,,3,0,3,0,0,0,0,10,,,,,605.1759012199706,None,,,,001,2021_May_03_0939,list_pa,2021.1.4,60.78620881051077,
sounds/gauche.ogg,0.7,,3,0,3,0,0,1,1,22,,,,,606.6739567200071,None,,,,001,2021_May_03_0939,list_pa,2021.1.4,60.78620881051077,
sounds/droite.ogg,0.7,,3,0,3,0,0,2,2,36,,,,,608.1765256200102,607.4918751000077,,,,001,2021_May_03_0939,list_pa,2021.1.4,60.78620881051077,
sounds/gauche.ogg,0.7,,3,0,3,0,0,3,3,5,,,,,609.6767817199812,608.9916542000137,,,,001,2021_May_03_0939,list_pa,2021.1.4,60.78620881051077,
sounds/droite.ogg,0.7,,3,0,3,0,0,4,4,34,,,,,611.1770143200062,None,,,,001,2021_May_03_0939,list_pa,2021.1.4,60.78620881051077,
sounds/gauche.ogg,0.7,,3,0,3,0,0,5,5,24,,,,,612.6766089200042,611.9924739999697,,,,001,2021_May_03_0939,list_pa,2021.1.4,60.78620881051077,
sounds/gauche.ogg,0.7,,3,0,3,0,0,6,6,15,,,,,614.176975820004,613.4928902999964,,,,001,2021_May_03_0939,list_pa,2021.1.4,60.78620881051077,
sounds/droite.ogg,0.7,,3,0,3,0,0,7,7,46,,,,,615.6776126200217,614.992982900003,,,,001,2021_May_03_0939,list_pa,2021.1.4,60.78620881051077,
sounds/gauche.ogg,0.7,,3,0,3,0,0,8,8,6,,,,,617.1779745199834,616.4937045999686,,,,001,2021_May_03_0939,list_pa,2021.1.4,60.78620881051077,
sounds/droite.ogg,0.7,,3,0,3,0,0,9,9,44,,,,,618.6786222199677,617.9937496000202,,,,001,2021_May_03_0939,list_pa,2021.1.4,60.78620881051077,
sounds/gauche.ogg,0.7,,3,0,3,0,0,10,10,21,,,,,620.1785579200019,619.49409990001,,,,001,2021_May_03_0939,list_pa,2021.1.4,60.78620881051077,
sounds/gauche.ogg,0.7,,3,0,3,0,0,11,11,7,,,,,621.6795720199822,620.9944404999842,,,,001,2021_May_03_0939,list_pa,2021.1.4,60.78620881051077,
sounds/droite.ogg,0.7,,3,0,3,0,0,12,12,48,,,,,623.1793058199925,622.4948814000236,,,,001,2021_May_03_0939,list_pa,2021.1.4,60.78620881051077,
sounds/droite.ogg,0.7,,3,0,3,0,0,13,13,45,,,,,624.6802727200208,623.994586899993,,,,001,2021_May_03_0939,list_pa,2021.1.4,60.78620881051077,
sounds/droite.ogg,0.7,,3,0,3,0,0,14,14,28,,,,,626.1801963200211,625.4953962999862,,,,001,2021_May_03_0939,list_pa,2021.1.4,60.78620881051077,
sounds/droite.ogg,0.7,,3,0,3,0,0,15,15,25,,,,,627.6801419200143,None,,,,001,2021_May_03_0939,list_pa,2021.1.4,60.78620881051077,
sounds/droite.ogg,0.7,,3,0,3,0,0,16,16,41,,,,,629.1806271199836,628.495988300012,,,,001,2021_May_03_0939,list_pa,2021.1.4,60.78620881051077,
sounds/gauche.ogg,0.7,,3,0,3,0,0,17,17,12,,,,,630.6809745200095,629.9961918999907,,,,001,2021_May_03_0939,list_pa,2021.1.4,60.78620881051077,
sounds/gauche.ogg,0.7,,3,0,3,0,0,18,18,4,,,,,632.1810682199663,631.4964462000062,,,,001,2021_May_03_0939,list_pa,2021.1.4,60.78620881051077,
sounds/gauche.ogg,0.7,,3,0,3,0,0,19,19,13,,,,,633.6818251199671,632.9969211000134,,,,001,2021_May_03_0939,list_pa,2021.1.4,60.78620881051077,
sounds/droite.ogg,0.7,,3,0,3,0,0,20,20,32,,,,,635.1820690200199,634.4971168999909,,,,001,2021_May_03_0939,list_pa,2021.1.4,60.78620881051077,
sounds/gauche.ogg,0.7,,3,0,3,0,0,21,21,0,,,,,636.68222431998,635.9976159000071,,,,001,2021_May_03_0939,list_pa,2021.1.4,60.78620881051077,
sounds/droite.ogg,0.7,,3,0,3,0,0,22,22,37,,,,,638.1825418200111,637.4983075999771,,,,001,2021_May_03_0939,list_pa,2021.1.4,60.78620881051077,
sounds/droite.ogg,0.7,,3,0,3,0,0,23,23,30,,,,,639.6827629200067,638.998625600012,,,,001,2021_May_03_0939,list_pa,2021.1.4,60.78620881051077,
sounds/gauche.ogg,0.7,,3,0,3,0,0,24,24,16,,,,,641.1835276200087,640.498418800009,,,,001,2021_May_03_0939,list_pa,2021.1.4,60.78620881051077,
sounds/gauche.ogg,0.7,,3,0,3,0,0,25,25,1,,,,,642.6852487200173,641.9987373999902,,,,001,2021_May_03_0939,list_pa,2021.1.4,60.78620881051077,
sounds/gauche.ogg,0.7,,3,0,3,0,0,26,26,3,,,,,644.2004117199918,None,,,,001,2021_May_03_0939,list_pa,2021.1.4,60.78620881051077,
sounds/droite.ogg,0.7,,3,0,3,0,0,27,27,40,,,,,645.7004620199674,645.0157426000223,,,,001,2021_May_03_0939,list_pa,2021.1.4,60.78620881051077,
sounds/droite.ogg,0.7,,3,0,3,0,0,28,28,33,,,,,647.201089319971,None,,,,001,2021_May_03_0939,list_pa,2021.1.4,60.78620881051077,
sounds/gauche.ogg,0.7,,3,0,3,0,0,29,29,2,,,,,648.7010822199751,648.0167005999829,,,,001,2021_May_03_0939,list_pa,2021.1.4,60.78620881051077,
sounds/gauche.ogg,0.7,,3,0,3,0,0,30,30,17,,,,,650.2014986200026,649.5169640000095,,,,001,2021_May_03_0939,list_pa,2021.1.4,60.78620881051077,
sounds/gauche.ogg,0.7,,3,0,3,0,0,31,31,8,,,,,651.7020941199968,651.0172725999728,,,,001,2021_May_03_0939,list_pa,2021.1.4,60.78620881051077,
sounds/droite.ogg,0.7,,3,0,3,0,0,32,32,47,,,,,653.2023513199762,652.5166547999834,,,,001,2021_May_03_0939,list_pa,2021.1.4,60.78620881051077,
sounds/gauche.ogg,0.7,,3,0,3,0,0,33,33,18,,,,,654.7024994199979,654.018338599999,,,,001,2021_May_03_0939,list_pa,2021.1.4,60.78620881051077,
sounds/droite.ogg,0.7,,3,0,3,0,0,34,34,27,,,,,656.202880719991,655.5183553000097,,,,001,2021_May_03_0939,list_pa,2021.1.4,60.78620881051077,
sounds/droite.ogg,0.7,,3,0,3,0,0,35,35,43,,,,,657.7031164199813,None,,,,001,2021_May_03_0939,list_pa,2021.1.4,60.78620881051077,
sounds/droite.ogg,0.7,,3,0,3,0,0,36,36,38,,,,,659.2036046199734,None,,,,001,2021_May_03_0939,list_pa,2021.1.4,60.78620881051077,
sounds/gauche.ogg,0.7,,3,0,3,0,0,37,37,19,,,,,660.7038546200143,None,,,,001,2021_May_03_0939,list_pa,2021.1.4,60.78620881051077,
sounds/gauche.ogg,0.7,,3,0,3,0,0,38,38,23,,,,,662.2050366199925,661.5192088999902,,,,001,2021_May_03_0939,list_pa,2021.1.4,60.78620881051077,
sounds/droite.ogg,0.7,,3,0,3,0,0,39,39,42,,,,,663.7044135200209,663.0192991999793,,,,001,2021_May_03_0939,list_pa,2021.1.4,60.78620881051077,
sounds/droite.ogg,0.7,,3,0,3,0,0,40,40,31,,,,,665.2050705200178,None,,,,001,2021_May_03_0939,list_pa,2021.1.4,60.78620881051077,
sounds/droite.ogg,0.7,,3,0,3,0,0,41,41,29,,,,,666.7049257200212,666.0200033999863,,,,001,2021_May_03_0939,list_pa,2021.1.4,60.78620881051077,
sounds/gauche.ogg,0.7,,3,0,3,0,0,42,42,14,,,,,668.2053305200185,667.5205197000178,,,,001,2021_May_03_0939,list_pa,2021.1.4,60.78620881051077,
sounds/droite.ogg,0.7,,3,0,3,0,0,43,43,39,,,,,669.7058049200219,669.0206652000197,,,,001,2021_May_03_0939,list_pa,2021.1.4,60.78620881051077,
sounds/droite.ogg,0.7,,3,0,3,0,0,44,44,49,,,,,671.2059718200122,670.5209458000027,,,,001,2021_May_03_0939,list_pa,2021.1.4,60.78620881051077,
sounds/gauche.ogg,0.7,,3,0,3,0,0,45,45,20,,,,,672.7056939199916,672.0210333999712,,,,001,2021_May_03_0939,list_pa,2021.1.4,60.78620881051077,
sounds/droite.ogg,0.7,,3,0,3,0,0,46,46,26,,,,,674.2067644199939,673.5218813999672,,,,001,2021_May_03_0939,list_pa,2021.1.4,60.78620881051077,
sounds/droite.ogg,0.7,,3,0,3,0,0,47,47,35,,,,,675.7066037199926,675.0222418999765,,,,001,2021_May_03_0939,list_pa,2021.1.4,60.78620881051077,
sounds/gauche.ogg,0.7,,3,0,3,0,0,48,48,11,,,,,677.2069324199925,676.5221757999971,,,,001,2021_May_03_0939,list_pa,2021.1.4,60.78620881051077,
sounds/gauche.ogg,0.7,,3,0,3,0,0,49,49,9,,,,,678.7070743199671,678.0225760000176,,,,001,2021_May_03_0939,list_pa,2021.1.4,60.78620881051077,
,,30,3,0,3,0,,,,,0,0,0,0,,,679.5381030999706,None,,001,2021_May_03_0939,list_pa,2021.1.4,60.78620881051077,
,,29,3,0,3,0,,,,,0,1,1,1,,,680.5396381000173,None,,001,2021_May_03_0939,list_pa,2021.1.4,60.78620881051077,
,,28,3,0,3,0,,,,,0,2,2,2,,,681.5399901000201,None,,001,2021_May_03_0939,list_pa,2021.1.4,60.78620881051077,
,,27,3,0,3,0,,,,,0,3,3,3,,,682.5402197000221,None,,001,2021_May_03_0939,list_pa,2021.1.4,60.78620881051077,
,,26,3,0,3,0,,,,,0,4,4,4,,,683.5404045999749,None,,001,2021_May_03_0939,list_pa,2021.1.4,60.78620881051077,
,,25,3,0,3,0,,,,,0,5,5,5,,,684.541244699969,None,,001,2021_May_03_0939,list_pa,2021.1.4,60.78620881051077,
,,24,3,0,3,0,,,,,0,6,6,6,,,685.5405673999921,None,,001,2021_May_03_0939,list_pa,2021.1.4,60.78620881051077,
,,23,3,0,3,0,,,,,0,7,7,7,,,686.5417110999697,None,,001,2021_May_03_0939,list_pa,2021.1.4,60.78620881051077,
,,22,3,0,3,0,,,,,0,8,8,8,,,687.5408424999914,None,,001,2021_May_03_0939,list_pa,2021.1.4,60.78620881051077,
,,21,3,0,3,0,,,,,0,9,9,9,,,688.54149709997,None,,001,2021_May_03_0939,list_pa,2021.1.4,60.78620881051077,
,,20,3,0,3,0,,,,,0,10,10,10,,,689.5413773999899,None,,001,2021_May_03_0939,list_pa,2021.1.4,60.78620881051077,
,,19,3,0,3,0,,,,,0,11,11,11,,,690.5419403999695,None,,001,2021_May_03_0939,list_pa,2021.1.4,60.78620881051077,
,,18,3,0,3,0,,,,,0,12,12,12,,,691.5416557000135,None,,001,2021_May_03_0939,list_pa,2021.1.4,60.78620881051077,
,,17,3,0,3,0,,,,,0,13,13,13,,,692.5441029000212,None,,001,2021_May_03_0939,list_pa,2021.1.4,60.78620881051077,
,,16,3,0,3,0,,,,,0,14,14,14,,,693.5424612999777,None,,001,2021_May_03_0939,list_pa,2021.1.4,60.78620881051077,
,,15,3,0,3,0,,,,,0,15,15,15,,,694.5426366999745,None,,001,2021_May_03_0939,list_pa,2021.1.4,60.78620881051077,
,,14,3,0,3,0,,,,,0,16,16,16,,,695.5426475999993,None,,001,2021_May_03_0939,list_pa,2021.1.4,60.78620881051077,
,,13,3,0,3,0,,,,,0,17,17,17,,,696.5264033999993,None,,001,2021_May_03_0939,list_pa,2021.1.4,60.78620881051077,
,,12,3,0,3,0,,,,,0,18,18,18,,,697.5431000000099,None,,001,2021_May_03_0939,list_pa,2021.1.4,60.78620881051077,
,,11,3,0,3,0,,,,,0,19,19,19,,,698.5272260999773,None,,001,2021_May_03_0939,list_pa,2021.1.4,60.78620881051077,
,,10,3,0,3,0,,,,,0,20,20,20,,,699.5270795000251,None,,001,2021_May_03_0939,list_pa,2021.1.4,60.78620881051077,
,,9,3,0,3,0,,,,,0,21,21,21,,,700.5271483999677,None,,001,2021_May_03_0939,list_pa,2021.1.4,60.78620881051077,
,,8,3,0,3,0,,,,,0,22,22,22,,,701.5267026000074,None,,001,2021_May_03_0939,list_pa,2021.1.4,60.78620881051077,
,,7,3,0,3,0,,,,,0,23,23,23,,,702.5280972999753,None,,001,2021_May_03_0939,list_pa,2021.1.4,60.78620881051077,
,,6,3,0,3,0,,,,,0,24,24,24,,,703.5282997000031,None,,001,2021_May_03_0939,list_pa,2021.1.4,60.78620881051077,
,,5,3,0,3,0,,,,,0,25,25,25,,,704.5275211000117,None,,001,2021_May_03_0939,list_pa,2021.1.4,60.78620881051077,
,,4,3,0,3,0,,,,,0,26,26,26,,,705.5285101999762,None,,001,2021_May_03_0939,list_pa,2021.1.4,60.78620881051077,
,,3,3,0,3,0,,,,,0,27,27,27,,,706.5280574000208,None,,001,2021_May_03_0939,list_pa,2021.1.4,60.78620881051077,
,,2,3,0,3,0,,,,,0,28,28,28,,,707.5280800000182,None,,001,2021_May_03_0939,list_pa,2021.1.4,60.78620881051077,
,,1,3,0,3,0,,,,,0,29,29,29,,,708.5286771000247,None,,001,2021_May_03_0939,list_pa,2021.1.4,60.78620881051077,
,,0,3,0,3,0,,,,,0,30,30,30,,,709.5292203999707,None,,001,2021_May_03_0939,list_pa,2021.1.4,60.78620881051077,
,,,3,0,3,0,,,,,,,,,,,,,,001,2021_May_03_0939,list_pa,2021.1.4,60.78620881051077,
sounds/droite.ogg,0.7,,4,0,4,0,0,0,0,31,,,,,711.2472224199679,None,,,,001,2021_May_03_0939,list_pa,2021.1.4,60.78620881051077,
sounds/droite.ogg,0.7,,4,0,4,0,0,1,1,38,,,,,712.7472372199642,712.0617338999873,,,,001,2021_May_03_0939,list_pa,2021.1.4,60.78620881051077,
sounds/droite.ogg,0.7,,4,0,4,0,0,2,2,26,,,,,714.2481323199696,713.5634714000043,,,,001,2021_May_03_0939,list_pa,2021.1.4,60.78620881051077,
sounds/droite.ogg,0.7,,4,0,4,0,0,3,3,48,,,,,715.7481305200141,715.0632890000124,,,,001,2021_May_03_0939,list_pa,2021.1.4,60.78620881051077,
sounds/gauche.ogg,0.7,,4,0,4,0,0,4,4,6,,,,,717.2482831200119,716.5637089000084,,,,001,2021_May_03_0939,list_pa,2021.1.4,60.78620881051077,
sounds/droite.ogg,0.7,,4,0,4,0,0,5,5,41,,,,,718.748483619967,718.0642769999686,,,,001,2021_May_03_0939,list_pa,2021.1.4,60.78620881051077,
sounds/gauche.ogg,0.7,,4,0,4,0,0,6,6,1,,,,,720.2490356199793,719.5646129000233,,,,001,2021_May_03_0939,list_pa,2021.1.4,60.78620881051077,
sounds/gauche.ogg,0.7,,4,0,4,0,0,7,7,2,,,,,721.7502911199932,None,,,,001,2021_May_03_0939,list_pa,2021.1.4,60.78620881051077,
sounds/droite.ogg,0.7,,4,0,4,0,0,8,8,30,,,,,723.2499504200183,722.5643647999968,,,,001,2021_May_03_0939,list_pa,2021.1.4,60.78620881051077,
sounds/droite.ogg,0.7,,4,0,4,0,0,9,9,47,,,,,724.7498095199932,724.0654282000032,,,,001,2021_May_03_0939,list_pa,2021.1.4,60.78620881051077,
sounds/droite.ogg,0.7,,4,0,4,0,0,10,10,37,,,,,726.2502900199848,725.5652637999738,,,,001,2021_May_03_0939,list_pa,2021.1.4,60.78620881051077,
sounds/gauche.ogg,0.7,,4,0,4,0,0,11,11,5,,,,,727.7507283200044,727.0655664000078,,,,001,2021_May_03_0939,list_pa,2021.1.4,60.78620881051077,
sounds/droite.ogg,0.7,,4,0,4,0,0,12,12,49,,,,,729.2514587199781,728.5659232999897,,,,001,2021_May_03_0939,list_pa,2021.1.4,60.78620881051077,
sounds/droite.ogg,0.7,,4,0,4,0,0,13,13,25,,,,,730.7508914199658,730.0664524000022,,,,001,2021_May_03_0939,list_pa,2021.1.4,60.78620881051077,
sounds/droite.ogg,0.7,,4,0,4,0,0,14,14,40,,,,,732.2516712199664,731.5668142000213,,,,001,2021_May_03_0939,list_pa,2021.1.4,60.78620881051077,
sounds/gauche.ogg,0.7,,4,0,4,0,0,15,15,21,,,,,733.7516859200201,None,,,,001,2021_May_03_0939,list_pa,2021.1.4,60.78620881051077,
sounds/droite.ogg,0.7,,4,0,4,0,0,16,16,35,,,,,735.2522546199849,734.567967400013,,,,001,2021_May_03_0939,list_pa,2021.1.4,60.78620881051077,
sounds/gauche.ogg,0.7,,4,0,4,0,0,17,17,17,,,,,736.7524928199942,736.0683380999835,,,,001,2021_May_03_0939,list_pa,2021.1.4,60.78620881051077,
sounds/gauche.ogg,0.7,,4,0,4,0,0,18,18,12,,,,,738.2528631200199,None,,,,001,2021_May_03_0939,list_pa,2021.1.4,60.78620881051077,
sounds/droite.ogg,0.7,,4,0,4,0,0,19,19,28,,,,,739.753336020012,None,,,,001,2021_May_03_0939,list_pa,2021.1.4,60.78620881051077,
sounds/gauche.ogg,0.7,,4,0,4,0,0,20,20,8,,,,,741.2534181199968,740.5685057999799,,,,001,2021_May_03_0939,list_pa,2021.1.4,60.78620881051077,
sounds/droite.ogg,0.7,,4,0,4,0,0,21,21,43,,,,,742.7541944199708,742.0690189999877,,,,001,2021_May_03_0939,list_pa,2021.1.4,60.78620881051077,
sounds/gauche.ogg,0.7,,4,0,4,0,0,22,22,13,,,,,744.2547477199929,743.5687806999777,,,,001,2021_May_03_0939,list_pa,2021.1.4,60.78620881051077,
sounds/gauche.ogg,0.7,,4,0,4,0,0,23,23,15,,,,,745.7539862200152,745.069512600021,,,,001,2021_May_03_0939,list_pa,2021.1.4,60.78620881051077,
sounds/gauche.ogg,0.7,,4,0,4,0,0,24,24,19,,,,,747.2547624199884,746.5698118999717,,,,001,2021_May_03_0939,list_pa,2021.1.4,60.78620881051077,
sounds/droite.ogg,0.7,,4,0,4,0,0,25,25,39,,,,,748.7550119199674,748.0694978999672,,,,001,2021_May_03_0939,list_pa,2021.1.4,60.78620881051077,
sounds/gauche.ogg,0.7,,4,0,4,0,0,26,26,0,,,,,750.2553194199805,749.5700742999907,,,,001,2021_May_03_0939,list_pa,2021.1.4,60.78620881051077,
sounds/gauche.ogg,0.7,,4,0,4,0,0,27,27,14,,,,,751.7557015199797,751.0705404999899,,,,001,2021_May_03_0939,list_pa,2021.1.4,60.78620881051077,
sounds/gauche.ogg,0.7,,4,0,4,0,0,28,28,3,,,,,753.2555739199976,752.5709564000135,,,,001,2021_May_03_0939,list_pa,2021.1.4,60.78620881051077,
sounds/gauche.ogg,0.7,,4,0,4,0,0,29,29,10,,,,,754.756060719979,754.0713484999724,,,,001,2021_May_03_0939,list_pa,2021.1.4,60.78620881051077,
sounds/gauche.ogg,0.7,,4,0,4,0,0,30,30,11,,,,,756.2565840200056,None,,,,001,2021_May_03_0939,list_pa,2021.1.4,60.78620881051077,
sounds/gauche.ogg,0.7,,4,0,4,0,0,31,31,24,,,,,757.7567028199788,757.0718807000085,,,,001,2021_May_03_0939,list_pa,2021.1.4,60.78620881051077,
sounds/droite.ogg,0.7,,4,0,4,0,0,32,32,34,,,,,759.2568535200204,758.5722537999973,,,,001,2021_May_03_0939,list_pa,2021.1.4,60.78620881051077,
sounds/droite.ogg,0.7,,4,0,4,0,0,33,33,27,,,,,760.7576592199854,None,,,,001,2021_May_03_0939,list_pa,2021.1.4,60.78620881051077,
sounds/droite.ogg,0.7,,4,0,4,0,0,34,34,29,,,,,762.2573052199674,761.5729680000222,,,,001,2021_May_03_0939,list_pa,2021.1.4,60.78620881051077,
sounds/gauche.ogg,0.7,,4,0,4,0,0,35,35,9,,,,,763.7576408200199,763.0731835999759,,,,001,2021_May_03_0939,list_pa,2021.1.4,60.78620881051077,
sounds/droite.ogg,0.7,,4,0,4,0,0,36,36,45,,,,,765.2578809199855,764.5735984999919,,,,001,2021_May_03_0939,list_pa,2021.1.4,60.78620881051077,
sounds/droite.ogg,0.7,,4,0,4,0,0,37,37,36,,,,,766.7585629199981,766.073819399986,,,,001,2021_May_03_0939,list_pa,2021.1.4,60.78620881051077,
sounds/gauche.ogg,0.7,,4,0,4,0,0,38,38,22,,,,,768.2585859199986,767.5740600000136,,,,001,2021_May_03_0939,list_pa,2021.1.4,60.78620881051077,
sounds/gauche.ogg,0.7,,4,0,4,0,0,39,39,16,,,,,769.7758308199933,None,,,,001,2021_May_03_0939,list_pa,2021.1.4,60.78620881051077,
sounds/gauche.ogg,0.7,,4,0,4,0,0,40,40,18,,,,,771.2760782200145,770.5908715999685,,,,001,2021_May_03_0939,list_pa,2021.1.4,60.78620881051077,
sounds/gauche.ogg,0.7,,4,0,4,0,0,41,41,4,,,,,772.7763894199976,772.091702900012,,,,001,2021_May_03_0939,list_pa,2021.1.4,60.78620881051077,
sounds/gauche.ogg,0.7,,4,0,4,0,0,42,42,23,,,,,774.2766410199926,773.5918911999906,,,,001,2021_May_03_0939,list_pa,2021.1.4,60.78620881051077,
sounds/droite.ogg,0.7,,4,0,4,0,0,43,43,46,,,,,775.7770816199715,None,,,,001,2021_May_03_0939,list_pa,2021.1.4,60.78620881051077,
sounds/droite.ogg,0.7,,4,0,4,0,0,44,44,44,,,,,777.2772605199949,776.5925559999887,,,,001,2021_May_03_0939,list_pa,2021.1.4,60.78620881051077,
sounds/gauche.ogg,0.7,,4,0,4,0,0,45,45,20,,,,,778.7773767200066,778.0931276999763,,,,001,2021_May_03_0939,list_pa,2021.1.4,60.78620881051077,
sounds/droite.ogg,0.7,,4,0,4,0,0,46,46,42,,,,,780.2776870199829,779.5929472999997,,,,001,2021_May_03_0939,list_pa,2021.1.4,60.78620881051077,
sounds/gauche.ogg,0.7,,4,0,4,0,0,47,47,7,,,,,781.7781801200123,781.093341699976,,,,001,2021_May_03_0939,list_pa,2021.1.4,60.78620881051077,
sounds/droite.ogg,0.7,,4,0,4,0,0,48,48,32,,,,,783.2786301200046,782.5936655999976,,,,001,2021_May_03_0939,list_pa,2021.1.4,60.78620881051077,
sounds/droite.ogg,0.7,,4,0,4,0,0,49,49,33,,,,,784.7786113199778,784.0943769000005,,,,001,2021_May_03_0939,list_pa,2021.1.4,60.78620881051077,
,,30,4,0,4,0,,,,,0,0,0,0,,,785.6281344000017,None,,001,2021_May_03_0939,list_pa,2021.1.4,60.78620881051077,
,,29,4,0,4,0,,,,,0,1,1,1,,,786.6112833999796,None,,001,2021_May_03_0939,list_pa,2021.1.4,60.78620881051077,
,,28,4,0,4,0,,,,,0,2,2,2,,,787.611153099977,None,,001,2021_May_03_0939,list_pa,2021.1.4,60.78620881051077,
,,27,4,0,4,0,,,,,0,3,3,3,,,788.6116883999784,None,,001,2021_May_03_0939,list_pa,2021.1.4,60.78620881051077,
,,26,4,0,4,0,,,,,0,4,4,4,,,789.6106916000135,None,,001,2021_May_03_0939,list_pa,2021.1.4,60.78620881051077,
,,25,4,0,4,0,,,,,0,5,5,5,,,790.6120385000249,None,,001,2021_May_03_0939,list_pa,2021.1.4,60.78620881051077,
,,24,4,0,4,0,,,,,0,6,6,6,,,791.6123407999985,None,,001,2021_May_03_0939,list_pa,2021.1.4,60.78620881051077,
,,23,4,0,4,0,,,,,0,7,7,7,,,792.5950826000189,None,,001,2021_May_03_0939,list_pa,2021.1.4,60.78620881051077,
,,22,4,0,4,0,,,,,0,8,8,8,,,793.611755400023,None,,001,2021_May_03_0939,list_pa,2021.1.4,60.78620881051077,
,,21,4,0,4,0,,,,,0,9,9,9,,,794.612630299991,None,,001,2021_May_03_0939,list_pa,2021.1.4,60.78620881051077,
,,20,4,0,4,0,,,,,0,10,10,10,,,795.6131504999939,None,,001,2021_May_03_0939,list_pa,2021.1.4,60.78620881051077,
,,19,4,0,4,0,,,,,0,11,11,11,,,796.6133430000045,None,,001,2021_May_03_0939,list_pa,2021.1.4,60.78620881051077,
,,18,4,0,4,0,,,,,0,12,12,12,,,797.6136886000168,None,,001,2021_May_03_0939,list_pa,2021.1.4,60.78620881051077,
,,17,4,0,4,0,,,,,0,13,13,13,,,798.5966917999904,None,,001,2021_May_03_0939,list_pa,2021.1.4,60.78620881051077,
,,16,4,0,4,0,,,,,0,14,14,14,,,799.6139829999884,None,,001,2021_May_03_0939,list_pa,2021.1.4,60.78620881051077,
,,15,4,0,4,0,,,,,0,15,15,15,,,800.6143034999841,None,,001,2021_May_03_0939,list_pa,2021.1.4,60.78620881051077,
,,14,4,0,4,0,,,,,0,16,16,16,,,801.6127106000204,None,,001,2021_May_03_0939,list_pa,2021.1.4,60.78620881051077,
,,13,4,0,4,0,,,,,0,17,17,17,,,802.6138369999826,None,,001,2021_May_03_0939,list_pa,2021.1.4,60.78620881051077,
,,12,4,0,4,0,,,,,0,18,18,18,,,803.6150493000168,None,,001,2021_May_03_0939,list_pa,2021.1.4,60.78620881051077,
,,11,4,0,4,0,,,,,0,19,19,19,,,804.6139668999822,None,,001,2021_May_03_0939,list_pa,2021.1.4,60.78620881051077,
,,10,4,0,4,0,,,,,0,20,20,20,,,805.6152153000003,None,,001,2021_May_03_0939,list_pa,2021.1.4,60.78620881051077,
,,9,4,0,4,0,,,,,0,21,21,21,,,806.6156070000143,None,,001,2021_May_03_0939,list_pa,2021.1.4,60.78620881051077,
,,8,4,0,4,0,,,,,0,22,22,22,,,807.615747999982,None,,001,2021_May_03_0939,list_pa,2021.1.4,60.78620881051077,
,,7,4,0,4,0,,,,,0,23,23,23,,,808.6157736000023,None,,001,2021_May_03_0939,list_pa,2021.1.4,60.78620881051077,
,,6,4,0,4,0,,,,,0,24,24,24,,,809.6164867000189,None,,001,2021_May_03_0939,list_pa,2021.1.4,60.78620881051077,
,,5,4,0,4,0,,,,,0,25,25,25,,,810.6162542999955,None,,001,2021_May_03_0939,list_pa,2021.1.4,60.78620881051077,
,,4,4,0,4,0,,,,,0,26,26,26,,,811.5993978999904,None,,001,2021_May_03_0939,list_pa,2021.1.4,60.78620881051077,
,,3,4,0,4,0,,,,,0,27,27,27,,,812.5996857999708,None,,001,2021_May_03_0939,list_pa,2021.1.4,60.78620881051077,
,,2,4,0,4,0,,,,,0,28,28,28,,,813.5997888999991,None,,001,2021_May_03_0939,list_pa,2021.1.4,60.78620881051077,
,,1,4,0,4,0,,,,,0,29,29,29,,,814.5999400999863,None,,001,2021_May_03_0939,list_pa,2021.1.4,60.78620881051077,
,,0,4,0,4,0,,,,,0,30,30,30,,,815.6002298999811,None,,001,2021_May_03_0939,list_pa,2021.1.4,60.78620881051077,
,,,4,0,4,0,,,,,,,,,,,,,,001,2021_May_03_0939,list_pa,2021.1.4,60.78620881051077,
