word_stimuli,isi,countdown,trials.thisRepN,trials.thisTrialN,trials.thisN,trials.thisIndex,trial_loop.thisRepN,trial_loop.thisTrialN,trial_loop.thisN,trial_loop.thisIndex,trials_2.thisRepN,trials_2.thisTrialN,trials_2.thisN,trials_2.thisIndex,sound_exposure.started,sound_exposure.stopped,text.started,text.stopped,participant,session,date,expName,psychopyVersion,frameRate,
sounds/droite.ogg,0.7,,0,0,0,0,0,0,0,43,,,,,40.23672102999408,None,,,,001,2021_Apr_30_1136,list_pa,2021.1.4,59.909943374365945,
sounds/gauche.ogg,0.7,,0,0,0,0,0,1,1,23,,,,,41.738881229999244,41.05202709999867,,,,001,2021_Apr_30_1136,list_pa,2021.1.4,59.909943374365945,
sounds/gauche.ogg,0.7,,0,0,0,0,0,2,2,8,,,,,43.25374782998697,None,,,,001,2021_Apr_30_1136,list_pa,2021.1.4,59.909943374365945,
sounds/gauche.ogg,0.7,,0,0,0,0,0,3,3,20,,,,,44.75526723000221,44.06873580001411,,,,001,2021_Apr_30_1136,list_pa,2021.1.4,59.909943374365945,
sounds/droite.ogg,0.7,,0,0,0,0,0,4,4,32,,,,,46.270881430007286,None,,,,001,2021_Apr_30_1136,list_pa,2021.1.4,59.909943374365945,
sounds/gauche.ogg,0.7,,0,0,0,0,0,5,5,10,,,,,47.77116532998625,47.08623980000266,,,,001,2021_Apr_30_1136,list_pa,2021.1.4,59.909943374365945,
sounds/gauche.ogg,0.7,,0,0,0,0,0,6,6,2,,,,,49.27154233000474,48.58660079998663,,,,001,2021_Apr_30_1136,list_pa,2021.1.4,59.909943374365945,
sounds/droite.ogg,0.7,,0,0,0,0,0,7,7,26,,,,,50.771659029991135,50.0859582000121,,,,001,2021_Apr_30_1136,list_pa,2021.1.4,59.909943374365945,
sounds/gauche.ogg,0.7,,0,0,0,0,0,8,8,5,,,,,52.27182442999911,51.58749189999071,,,,001,2021_Apr_30_1136,list_pa,2021.1.4,59.909943374365945,
sounds/gauche.ogg,0.7,,0,0,0,0,0,9,9,0,,,,,53.77180862999521,53.08750470000086,,,,001,2021_Apr_30_1136,list_pa,2021.1.4,59.909943374365945,
sounds/gauche.ogg,0.7,,0,0,0,0,0,10,10,24,,,,,55.272868530004054,54.58678599999985,,,,001,2021_Apr_30_1136,list_pa,2021.1.4,59.909943374365945,
sounds/gauche.ogg,0.7,,0,0,0,0,0,11,11,12,,,,,56.77294113000389,56.08812870000838,,,,001,2021_Apr_30_1136,list_pa,2021.1.4,59.909943374365945,
sounds/droite.ogg,0.7,,0,0,0,0,0,12,12,27,,,,,58.2733923300053,None,,,,001,2021_Apr_30_1136,list_pa,2021.1.4,59.909943374365945,
sounds/droite.ogg,0.7,,0,0,0,0,0,13,13,39,,,,,59.77376793001313,59.08858750000945,,,,001,2021_Apr_30_1136,list_pa,2021.1.4,59.909943374365945,
sounds/gauche.ogg,0.7,,0,0,0,0,0,14,14,9,,,,,61.274212529993385,60.58864659999381,,,,001,2021_Apr_30_1136,list_pa,2021.1.4,59.909943374365945,
sounds/droite.ogg,0.7,,0,0,0,0,0,15,15,41,,,,,62.77446432998986,None,,,,001,2021_Apr_30_1136,list_pa,2021.1.4,59.909943374365945,
sounds/droite.ogg,0.7,,0,0,0,0,0,16,16,42,,,,,64.27464432999258,63.589601899991976,,,,001,2021_Apr_30_1136,list_pa,2021.1.4,59.909943374365945,
sounds/gauche.ogg,0.7,,0,0,0,0,0,17,17,4,,,,,65.775401829998,65.09019620000618,,,,001,2021_Apr_30_1136,list_pa,2021.1.4,59.909943374365945,
sounds/gauche.ogg,0.7,,0,0,0,0,0,18,18,17,,,,,67.27556852998677,66.59046310000122,,,,001,2021_Apr_30_1136,list_pa,2021.1.4,59.909943374365945,
sounds/gauche.ogg,0.7,,0,0,0,0,0,19,19,13,,,,,68.77557793000014,68.09087409998756,,,,001,2021_Apr_30_1136,list_pa,2021.1.4,59.909943374365945,
sounds/droite.ogg,0.7,,0,0,0,0,0,20,20,25,,,,,70.27642992999753,69.58978740000748,,,,001,2021_Apr_30_1136,list_pa,2021.1.4,59.909943374365945,
sounds/droite.ogg,0.7,,0,0,0,0,0,21,21,29,,,,,71.79276693000574,None,,,,001,2021_Apr_30_1136,list_pa,2021.1.4,59.909943374365945,
sounds/gauche.ogg,0.7,,0,0,0,0,0,22,22,19,,,,,73.29285752999712,None,,,,001,2021_Apr_30_1136,list_pa,2021.1.4,59.909943374365945,
sounds/gauche.ogg,0.7,,0,0,0,0,0,23,23,21,,,,,74.79316362999961,74.10846180000226,,,,001,2021_Apr_30_1136,list_pa,2021.1.4,59.909943374365945,
sounds/droite.ogg,0.7,,0,0,0,0,0,24,24,35,,,,,76.29370182999409,75.60874429999967,,,,001,2021_Apr_30_1136,list_pa,2021.1.4,59.909943374365945,
sounds/droite.ogg,0.7,,0,0,0,0,0,25,25,45,,,,,77.7939517300052,None,,,,001,2021_Apr_30_1136,list_pa,2021.1.4,59.909943374365945,
sounds/droite.ogg,0.7,,0,0,0,0,0,26,26,48,,,,,79.2943773299863,78.6092609000043,,,,001,2021_Apr_30_1136,list_pa,2021.1.4,59.909943374365945,
sounds/droite.ogg,0.7,,0,0,0,0,0,27,27,30,,,,,80.79140573000186,80.10969700000715,,,,001,2021_Apr_30_1136,list_pa,2021.1.4,59.909943374365945,
sounds/gauche.ogg,0.7,,0,0,0,0,0,28,28,3,,,,,82.29579503001295,None,,,,001,2021_Apr_30_1136,list_pa,2021.1.4,59.909943374365945,
sounds/gauche.ogg,0.7,,0,0,0,0,0,29,29,16,,,,,83.79542952999472,83.11076469998807,,,,001,2021_Apr_30_1136,list_pa,2021.1.4,59.909943374365945,
sounds/droite.ogg,0.7,,0,0,0,0,0,30,30,36,,,,,85.29614543000352,84.60958700001356,,,,001,2021_Apr_30_1136,list_pa,2021.1.4,59.909943374365945,
sounds/droite.ogg,0.7,,0,0,0,0,0,31,31,40,,,,,86.79583532999968,86.11086670000805,,,,001,2021_Apr_30_1136,list_pa,2021.1.4,59.909943374365945,
sounds/droite.ogg,0.7,,0,0,0,0,0,32,32,38,,,,,88.29623622999642,87.611167199997,,,,001,2021_Apr_30_1136,list_pa,2021.1.4,59.909943374365945,
sounds/gauche.ogg,0.7,,0,0,0,0,0,33,33,11,,,,,89.79666052999673,89.1119602000108,,,,001,2021_Apr_30_1136,list_pa,2021.1.4,59.909943374365945,
sounds/droite.ogg,0.7,,0,0,0,0,0,34,34,44,,,,,91.29645213001058,90.61220110001159,,,,001,2021_Apr_30_1136,list_pa,2021.1.4,59.909943374365945,
sounds/droite.ogg,0.7,,0,0,0,0,0,35,35,47,,,,,92.79779283000389,92.1122378,,,,001,2021_Apr_30_1136,list_pa,2021.1.4,59.909943374365945,
sounds/droite.ogg,0.7,,0,0,0,0,0,36,36,37,,,,,94.29747752998955,93.6112892999954,,,,001,2021_Apr_30_1136,list_pa,2021.1.4,59.909943374365945,
sounds/droite.ogg,0.7,,0,0,0,0,0,37,37,34,,,,,95.7977661300043,None,,,,001,2021_Apr_30_1136,list_pa,2021.1.4,59.909943374365945,
sounds/gauche.ogg,0.7,,0,0,0,0,0,38,38,6,,,,,97.29807153000147,96.61270399999921,,,,001,2021_Apr_30_1136,list_pa,2021.1.4,59.909943374365945,
sounds/droite.ogg,0.7,,0,0,0,0,0,39,39,28,,,,,98.7994160299946,98.11330060000182,,,,001,2021_Apr_30_1136,list_pa,2021.1.4,59.909943374365945,
sounds/gauche.ogg,0.7,,0,0,0,0,0,40,40,14,,,,,100.31517382998717,99.63025149999885,,,,001,2021_Apr_30_1136,list_pa,2021.1.4,59.909943374365945,
sounds/droite.ogg,0.7,,0,0,0,0,0,41,41,46,,,,,101.81614102998864,101.13058890000684,,,,001,2021_Apr_30_1136,list_pa,2021.1.4,59.909943374365945,
sounds/gauche.ogg,0.7,,0,0,0,0,0,42,42,22,,,,,103.3158749299997,102.63067270000465,,,,001,2021_Apr_30_1136,list_pa,2021.1.4,59.909943374365945,
sounds/gauche.ogg,0.7,,0,0,0,0,0,43,43,1,,,,,104.81620622999034,104.13154930001474,,,,001,2021_Apr_30_1136,list_pa,2021.1.4,59.909943374365945,
sounds/gauche.ogg,0.7,,0,0,0,0,0,44,44,15,,,,,106.31645412998623,105.63205770001514,,,,001,2021_Apr_30_1136,list_pa,2021.1.4,59.909943374365945,
sounds/droite.ogg,0.7,,0,0,0,0,0,45,45,33,,,,,107.81693113000946,107.13237740000477,,,,001,2021_Apr_30_1136,list_pa,2021.1.4,59.909943374365945,
sounds/droite.ogg,0.7,,0,0,0,0,0,46,46,49,,,,,109.31724902998539,None,,,,001,2021_Apr_30_1136,list_pa,2021.1.4,59.909943374365945,
sounds/droite.ogg,0.7,,0,0,0,0,0,47,47,31,,,,,110.81774772999924,None,,,,001,2021_Apr_30_1136,list_pa,2021.1.4,59.909943374365945,
sounds/gauche.ogg,0.7,,0,0,0,0,0,48,48,18,,,,,112.31778852998977,111.6326226000092,,,,001,2021_Apr_30_1136,list_pa,2021.1.4,59.909943374365945,
sounds/gauche.ogg,0.7,,0,0,0,0,0,49,49,7,,,,,113.81805342999868,113.13267230000929,,,,001,2021_Apr_30_1136,list_pa,2021.1.4,59.909943374365945,
,,30,0,0,0,0,,,,,0,0,0,0,,,114.6919588999881,None,,001,2021_Apr_30_1136,list_pa,2021.1.4,59.909943374365945,
,,29,0,0,0,0,,,,,0,1,1,1,,,115.6501500000013,None,,001,2021_Apr_30_1136,list_pa,2021.1.4,59.909943374365945,
,,28,0,0,0,0,,,,,0,2,2,2,,,116.65035650000209,None,,001,2021_Apr_30_1136,list_pa,2021.1.4,59.909943374365945,
,,27,0,0,0,0,,,,,0,3,3,3,,,117.65045210000244,None,,001,2021_Apr_30_1136,list_pa,2021.1.4,59.909943374365945,
,,26,0,0,0,0,,,,,0,4,4,4,,,118.6507844000007,None,,001,2021_Apr_30_1136,list_pa,2021.1.4,59.909943374365945,
,,25,0,0,0,0,,,,,0,5,5,5,,,119.65094009999302,None,,001,2021_Apr_30_1136,list_pa,2021.1.4,59.909943374365945,
,,24,0,0,0,0,,,,,0,6,6,6,,,120.65126780001447,None,,001,2021_Apr_30_1136,list_pa,2021.1.4,59.909943374365945,
,,23,0,0,0,0,,,,,0,7,7,7,,,121.65121179999551,None,,001,2021_Apr_30_1136,list_pa,2021.1.4,59.909943374365945,
,,22,0,0,0,0,,,,,0,8,8,8,,,122.65169619998778,None,,001,2021_Apr_30_1136,list_pa,2021.1.4,59.909943374365945,
,,21,0,0,0,0,,,,,0,9,9,9,,,123.65167349998956,None,,001,2021_Apr_30_1136,list_pa,2021.1.4,59.909943374365945,
,,20,0,0,0,0,,,,,0,10,10,10,,,124.65211950000958,None,,001,2021_Apr_30_1136,list_pa,2021.1.4,59.909943374365945,
,,19,0,0,0,0,,,,,0,11,11,11,,,125.65233280000393,None,,001,2021_Apr_30_1136,list_pa,2021.1.4,59.909943374365945,
,,18,0,0,0,0,,,,,0,12,12,12,,,126.65249939999194,None,,001,2021_Apr_30_1136,list_pa,2021.1.4,59.909943374365945,
,,17,0,0,0,0,,,,,0,13,13,13,,,127.65277049998986,None,,001,2021_Apr_30_1136,list_pa,2021.1.4,59.909943374365945,
,,16,0,0,0,0,,,,,0,14,14,14,,,128.6526695000066,None,,001,2021_Apr_30_1136,list_pa,2021.1.4,59.909943374365945,
,,15,0,0,0,0,,,,,0,15,15,15,,,129.6521619000123,None,,001,2021_Apr_30_1136,list_pa,2021.1.4,59.909943374365945,
,,14,0,0,0,0,,,,,0,16,16,16,,,130.65301249999902,None,,001,2021_Apr_30_1136,list_pa,2021.1.4,59.909943374365945,
,,13,0,0,0,0,,,,,0,17,17,17,,,131.65318729999126,None,,001,2021_Apr_30_1136,list_pa,2021.1.4,59.909943374365945,
,,12,0,0,0,0,,,,,0,18,18,18,,,132.6533391000121,None,,001,2021_Apr_30_1136,list_pa,2021.1.4,59.909943374365945,
,,11,0,0,0,0,,,,,0,19,19,19,,,133.6537812000024,None,,001,2021_Apr_30_1136,list_pa,2021.1.4,59.909943374365945,
,,10,0,0,0,0,,,,,0,20,20,20,,,134.65376220000326,None,,001,2021_Apr_30_1136,list_pa,2021.1.4,59.909943374365945,
,,9,0,0,0,0,,,,,0,21,21,21,,,135.63757960000657,None,,001,2021_Apr_30_1136,list_pa,2021.1.4,59.909943374365945,
,,8,0,0,0,0,,,,,0,22,22,22,,,136.65391709998948,None,,001,2021_Apr_30_1136,list_pa,2021.1.4,59.909943374365945,
,,7,0,0,0,0,,,,,0,23,23,23,,,137.63800340000307,None,,001,2021_Apr_30_1136,list_pa,2021.1.4,59.909943374365945,
,,6,0,0,0,0,,,,,0,24,24,24,,,138.6384134000109,None,,001,2021_Apr_30_1136,list_pa,2021.1.4,59.909943374365945,
,,5,0,0,0,0,,,,,0,25,25,25,,,139.636845800007,None,,001,2021_Apr_30_1136,list_pa,2021.1.4,59.909943374365945,
,,4,0,0,0,0,,,,,0,26,26,26,,,140.6386516999919,None,,001,2021_Apr_30_1136,list_pa,2021.1.4,59.909943374365945,
,,3,0,0,0,0,,,,,0,27,27,27,,,141.63852199999383,None,,001,2021_Apr_30_1136,list_pa,2021.1.4,59.909943374365945,
,,2,0,0,0,0,,,,,0,28,28,28,,,142.63920679999865,None,,001,2021_Apr_30_1136,list_pa,2021.1.4,59.909943374365945,
,,1,0,0,0,0,,,,,0,29,29,29,,,143.63951330000418,None,,001,2021_Apr_30_1136,list_pa,2021.1.4,59.909943374365945,
,,0,0,0,0,0,,,,,0,30,30,30,,,144.63961250000284,None,,001,2021_Apr_30_1136,list_pa,2021.1.4,59.909943374365945,
,,,0,0,0,0,,,,,,,,,,,,,,001,2021_Apr_30_1136,list_pa,2021.1.4,59.909943374365945,
sounds/droite.ogg,0.7,,1,0,1,0,0,0,0,46,,,,,146.37519223000854,None,,,,001,2021_Apr_30_1136,list_pa,2021.1.4,59.909943374365945,
sounds/droite.ogg,0.7,,1,0,1,0,0,1,1,32,,,,,147.87499112999066,None,,,,001,2021_Apr_30_1136,list_pa,2021.1.4,59.909943374365945,
sounds/gauche.ogg,0.7,,1,0,1,0,0,2,2,4,,,,,149.37508742999634,148.6901235000114,,,,001,2021_Apr_30_1136,list_pa,2021.1.4,59.909943374365945,
sounds/gauche.ogg,0.7,,1,0,1,0,0,3,3,23,,,,,150.87523312999983,150.19011620001402,,,,001,2021_Apr_30_1136,list_pa,2021.1.4,59.909943374365945,
sounds/gauche.ogg,0.7,,1,0,1,0,0,4,4,14,,,,,152.37574643000843,None,,,,001,2021_Apr_30_1136,list_pa,2021.1.4,59.909943374365945,
sounds/gauche.ogg,0.7,,1,0,1,0,0,5,5,22,,,,,153.8764443299966,153.19241739998688,,,,001,2021_Apr_30_1136,list_pa,2021.1.4,59.909943374365945,
sounds/gauche.ogg,0.7,,1,0,1,0,0,6,6,20,,,,,155.3769659300102,154.69203310000012,,,,001,2021_Apr_30_1136,list_pa,2021.1.4,59.909943374365945,
sounds/droite.ogg,0.7,,1,0,1,0,0,7,7,33,,,,,156.87685752999968,156.19129930000054,,,,001,2021_Apr_30_1136,list_pa,2021.1.4,59.909943374365945,
sounds/gauche.ogg,0.7,,1,0,1,0,0,8,8,7,,,,,158.37701362999505,157.69225520000327,,,,001,2021_Apr_30_1136,list_pa,2021.1.4,59.909943374365945,
sounds/droite.ogg,0.7,,1,0,1,0,0,9,9,35,,,,,159.8771661299921,None,,,,001,2021_Apr_30_1136,list_pa,2021.1.4,59.909943374365945,
sounds/droite.ogg,0.7,,1,0,1,0,0,10,10,38,,,,,161.37778522999142,160.69205760001205,,,,001,2021_Apr_30_1136,list_pa,2021.1.4,59.909943374365945,
sounds/gauche.ogg,0.7,,1,0,1,0,0,11,11,11,,,,,162.8780665300088,162.19328730000416,,,,001,2021_Apr_30_1136,list_pa,2021.1.4,59.909943374365945,
sounds/gauche.ogg,0.7,,1,0,1,0,0,12,12,0,,,,,164.37850032999413,163.6932977999968,,,,001,2021_Apr_30_1136,list_pa,2021.1.4,59.909943374365945,
sounds/gauche.ogg,0.7,,1,0,1,0,0,13,13,9,,,,,165.8793800299987,None,,,,001,2021_Apr_30_1136,list_pa,2021.1.4,59.909943374365945,
sounds/droite.ogg,0.7,,1,0,1,0,0,14,14,26,,,,,167.37946063000126,166.69379710001522,,,,001,2021_Apr_30_1136,list_pa,2021.1.4,59.909943374365945,
sounds/gauche.ogg,0.7,,1,0,1,0,0,15,15,21,,,,,168.87985423000063,168.19383269999526,,,,001,2021_Apr_30_1136,list_pa,2021.1.4,59.909943374365945,
sounds/gauche.ogg,0.7,,1,0,1,0,0,16,16,12,,,,,170.37957633000914,None,,,,001,2021_Apr_30_1136,list_pa,2021.1.4,59.909943374365945,
sounds/gauche.ogg,0.7,,1,0,1,0,0,17,17,5,,,,,171.87954702998977,171.1940493999864,,,,001,2021_Apr_30_1136,list_pa,2021.1.4,59.909943374365945,
sounds/gauche.ogg,0.7,,1,0,1,0,0,18,18,10,,,,,173.38047123001306,172.69527349999407,,,,001,2021_Apr_30_1136,list_pa,2021.1.4,59.909943374365945,
sounds/droite.ogg,0.7,,1,0,1,0,0,19,19,37,,,,,174.88027223001117,174.19526559999213,,,,001,2021_Apr_30_1136,list_pa,2021.1.4,59.909943374365945,
sounds/gauche.ogg,0.7,,1,0,1,0,0,20,20,6,,,,,176.38049192999605,175.6956618000113,,,,001,2021_Apr_30_1136,list_pa,2021.1.4,59.909943374365945,
sounds/gauche.ogg,0.7,,1,0,1,0,0,21,21,16,,,,,177.88080092999152,177.19620440001017,,,,001,2021_Apr_30_1136,list_pa,2021.1.4,59.909943374365945,
sounds/droite.ogg,0.7,,1,0,1,0,0,22,22,44,,,,,179.3811324300128,178.69629140000325,,,,001,2021_Apr_30_1136,list_pa,2021.1.4,59.909943374365945,
sounds/droite.ogg,0.7,,1,0,1,0,0,23,23,39,,,,,180.88133982999133,180.19690820001415,,,,001,2021_Apr_30_1136,list_pa,2021.1.4,59.909943374365945,
sounds/gauche.ogg,0.7,,1,0,1,0,0,24,24,18,,,,,182.3815303299867,181.69684330001473,,,,001,2021_Apr_30_1136,list_pa,2021.1.4,59.909943374365945,
sounds/droite.ogg,0.7,,1,0,1,0,0,25,25,28,,,,,183.88185962999123,183.19719880001503,,,,001,2021_Apr_30_1136,list_pa,2021.1.4,59.909943374365945,
sounds/droite.ogg,0.7,,1,0,1,0,0,26,26,47,,,,,185.38233093000017,184.6975206999923,,,,001,2021_Apr_30_1136,list_pa,2021.1.4,59.909943374365945,
sounds/droite.ogg,0.7,,1,0,1,0,0,27,27,49,,,,,186.88253093000966,None,,,,001,2021_Apr_30_1136,list_pa,2021.1.4,59.909943374365945,
sounds/droite.ogg,0.7,,1,0,1,0,0,28,28,36,,,,,188.38255582999554,187.69837679999182,,,,001,2021_Apr_30_1136,list_pa,2021.1.4,59.909943374365945,
sounds/droite.ogg,0.7,,1,0,1,0,0,29,29,41,,,,,189.88404453000985,189.19819890000508,,,,001,2021_Apr_30_1136,list_pa,2021.1.4,59.909943374365945,
sounds/droite.ogg,0.7,,1,0,1,0,0,30,30,30,,,,,191.38377832999103,None,,,,001,2021_Apr_30_1136,list_pa,2021.1.4,59.909943374365945,
sounds/droite.ogg,0.7,,1,0,1,0,0,31,31,43,,,,,192.8843755299982,192.19919869999285,,,,001,2021_Apr_30_1136,list_pa,2021.1.4,59.909943374365945,
sounds/gauche.ogg,0.7,,1,0,1,0,0,32,32,8,,,,,194.38403162999893,193.69905349999317,,,,001,2021_Apr_30_1136,list_pa,2021.1.4,59.909943374365945,
sounds/droite.ogg,0.7,,1,0,1,0,0,33,33,34,,,,,195.88519533001235,195.19986329998937,,,,001,2021_Apr_30_1136,list_pa,2021.1.4,59.909943374365945,
sounds/gauche.ogg,0.7,,1,0,1,0,0,34,34,1,,,,,197.38490222999243,196.69906489999266,,,,001,2021_Apr_30_1136,list_pa,2021.1.4,59.909943374365945,
sounds/droite.ogg,0.7,,1,0,1,0,0,35,35,29,,,,,198.8853711300122,198.20080389999202,,,,001,2021_Apr_30_1136,list_pa,2021.1.4,59.909943374365945,
sounds/gauche.ogg,0.7,,1,0,1,0,0,36,36,13,,,,,200.38572153000277,199.7010145999957,,,,001,2021_Apr_30_1136,list_pa,2021.1.4,59.909943374365945,
sounds/gauche.ogg,0.7,,1,0,1,0,0,37,37,24,,,,,201.88581932999077,201.2010306000011,,,,001,2021_Apr_30_1136,list_pa,2021.1.4,59.909943374365945,
sounds/gauche.ogg,0.7,,1,0,1,0,0,38,38,15,,,,,203.38687522999825,None,,,,001,2021_Apr_30_1136,list_pa,2021.1.4,59.909943374365945,
sounds/gauche.ogg,0.7,,1,0,1,0,0,39,39,2,,,,,204.88657093000947,204.20183669999824,,,,001,2021_Apr_30_1136,list_pa,2021.1.4,59.909943374365945,
sounds/gauche.ogg,0.7,,1,0,1,0,0,40,40,3,,,,,206.38772443000343,205.7023107999994,,,,001,2021_Apr_30_1136,list_pa,2021.1.4,59.909943374365945,
sounds/droite.ogg,0.7,,1,0,1,0,0,41,41,45,,,,,207.88706272999988,207.20195940000121,,,,001,2021_Apr_30_1136,list_pa,2021.1.4,59.909943374365945,
sounds/droite.ogg,0.7,,1,0,1,0,0,42,42,27,,,,,209.38726332998485,None,,,,001,2021_Apr_30_1136,list_pa,2021.1.4,59.909943374365945,
sounds/droite.ogg,0.7,,1,0,1,0,0,43,43,31,,,,,210.88775163000682,None,,,,001,2021_Apr_30_1136,list_pa,2021.1.4,59.909943374365945,
sounds/gauche.ogg,0.7,,1,0,1,0,0,44,44,17,,,,,212.38899833001196,211.7029201000114,,,,001,2021_Apr_30_1136,list_pa,2021.1.4,59.909943374365945,
sounds/droite.ogg,0.7,,1,0,1,0,0,45,45,42,,,,,213.88900123000494,213.20312980000745,,,,001,2021_Apr_30_1136,list_pa,2021.1.4,59.909943374365945,
sounds/droite.ogg,0.7,,1,0,1,0,0,46,46,40,,,,,215.388375729986,214.70326489998843,,,,001,2021_Apr_30_1136,list_pa,2021.1.4,59.909943374365945,
sounds/droite.ogg,0.7,,1,0,1,0,0,47,47,48,,,,,216.88942762999213,216.20381119998638,,,,001,2021_Apr_30_1136,list_pa,2021.1.4,59.909943374365945,
sounds/droite.ogg,0.7,,1,0,1,0,0,48,48,25,,,,,218.3897190299991,217.70386149999104,,,,001,2021_Apr_30_1136,list_pa,2021.1.4,59.909943374365945,
sounds/gauche.ogg,0.7,,1,0,1,0,0,49,49,19,,,,,219.8896931300056,219.2045219000138,,,,001,2021_Apr_30_1136,list_pa,2021.1.4,59.909943374365945,
,,30,1,0,1,0,,,,,0,0,0,0,,,220.72034729999723,None,,001,2021_Apr_30_1136,list_pa,2021.1.4,59.909943374365945,
,,29,1,0,1,0,,,,,0,1,1,1,,,221.72226360000786,None,,001,2021_Apr_30_1136,list_pa,2021.1.4,59.909943374365945,
,,28,1,0,1,0,,,,,0,2,2,2,,,222.72235910000745,None,,001,2021_Apr_30_1136,list_pa,2021.1.4,59.909943374365945,
,,27,1,0,1,0,,,,,0,3,3,3,,,223.72206960001495,None,,001,2021_Apr_30_1136,list_pa,2021.1.4,59.909943374365945,
,,26,1,0,1,0,,,,,0,4,4,4,,,224.72249099999317,None,,001,2021_Apr_30_1136,list_pa,2021.1.4,59.909943374365945,
,,25,1,0,1,0,,,,,0,5,5,5,,,225.7223449999874,None,,001,2021_Apr_30_1136,list_pa,2021.1.4,59.909943374365945,
,,24,1,0,1,0,,,,,0,6,6,6,,,226.7227043999883,None,,001,2021_Apr_30_1136,list_pa,2021.1.4,59.909943374365945,
,,23,1,0,1,0,,,,,0,7,7,7,,,227.72271770000225,None,,001,2021_Apr_30_1136,list_pa,2021.1.4,59.909943374365945,
,,22,1,0,1,0,,,,,0,8,8,8,,,228.72365659999195,None,,001,2021_Apr_30_1136,list_pa,2021.1.4,59.909943374365945,
,,21,1,0,1,0,,,,,0,9,9,9,,,229.7232112000056,None,,001,2021_Apr_30_1136,list_pa,2021.1.4,59.909943374365945,
,,20,1,0,1,0,,,,,0,10,10,10,,,230.7230789999885,None,,001,2021_Apr_30_1136,list_pa,2021.1.4,59.909943374365945,
,,19,1,0,1,0,,,,,0,11,11,11,,,231.723427799996,None,,001,2021_Apr_30_1136,list_pa,2021.1.4,59.909943374365945,
,,18,1,0,1,0,,,,,0,12,12,12,,,232.72367810001015,None,,001,2021_Apr_30_1136,list_pa,2021.1.4,59.909943374365945,
,,17,1,0,1,0,,,,,0,13,13,13,,,233.7239447000029,None,,001,2021_Apr_30_1136,list_pa,2021.1.4,59.909943374365945,
,,16,1,0,1,0,,,,,0,14,14,14,,,234.7232428000134,None,,001,2021_Apr_30_1136,list_pa,2021.1.4,59.909943374365945,
,,15,1,0,1,0,,,,,0,15,15,15,,,235.72411189999548,None,,001,2021_Apr_30_1136,list_pa,2021.1.4,59.909943374365945,
,,14,1,0,1,0,,,,,0,16,16,16,,,236.72456920001423,None,,001,2021_Apr_30_1136,list_pa,2021.1.4,59.909943374365945,
,,13,1,0,1,0,,,,,0,17,17,17,,,237.72514369999408,None,,001,2021_Apr_30_1136,list_pa,2021.1.4,59.909943374365945,
,,12,1,0,1,0,,,,,0,18,18,18,,,238.72514379999484,None,,001,2021_Apr_30_1136,list_pa,2021.1.4,59.909943374365945,
,,11,1,0,1,0,,,,,0,19,19,19,,,239.72497000001022,None,,001,2021_Apr_30_1136,list_pa,2021.1.4,59.909943374365945,
,,10,1,0,1,0,,,,,0,20,20,20,,,240.72569880000083,None,,001,2021_Apr_30_1136,list_pa,2021.1.4,59.909943374365945,
,,9,1,0,1,0,,,,,0,21,21,21,,,241.7256425000087,None,,001,2021_Apr_30_1136,list_pa,2021.1.4,59.909943374365945,
,,8,1,0,1,0,,,,,0,22,22,22,,,242.70912390001467,None,,001,2021_Apr_30_1136,list_pa,2021.1.4,59.909943374365945,
,,7,1,0,1,0,,,,,0,23,23,23,,,243.7097259000002,None,,001,2021_Apr_30_1136,list_pa,2021.1.4,59.909943374365945,
,,6,1,0,1,0,,,,,0,24,24,24,,,244.71006420001504,None,,001,2021_Apr_30_1136,list_pa,2021.1.4,59.909943374365945,
,,5,1,0,1,0,,,,,0,25,25,25,,,245.71003200000268,None,,001,2021_Apr_30_1136,list_pa,2021.1.4,59.909943374365945,
,,4,1,0,1,0,,,,,0,26,26,26,,,246.7103683000023,None,,001,2021_Apr_30_1136,list_pa,2021.1.4,59.909943374365945,
,,3,1,0,1,0,,,,,0,27,27,27,,,247.71031359999324,None,,001,2021_Apr_30_1136,list_pa,2021.1.4,59.909943374365945,
,,2,1,0,1,0,,,,,0,28,28,28,,,248.7104726000107,None,,001,2021_Apr_30_1136,list_pa,2021.1.4,59.909943374365945,
,,1,1,0,1,0,,,,,0,29,29,29,,,249.71201730001485,None,,001,2021_Apr_30_1136,list_pa,2021.1.4,59.909943374365945,
,,0,1,0,1,0,,,,,0,30,30,30,,,250.7112705000036,None,,001,2021_Apr_30_1136,list_pa,2021.1.4,59.909943374365945,
,,,1,0,1,0,,,,,,,,,,,,,,001,2021_Apr_30_1136,list_pa,2021.1.4,59.909943374365945,
sounds/gauche.ogg,0.7,,2,0,2,0,0,0,0,19,,,,,252.41266942998627,None,,,,001,2021_Apr_30_1136,list_pa,2021.1.4,59.909943374365945,
sounds/droite.ogg,0.7,,2,0,2,0,0,1,1,27,,,,,253.91276733000413,253.2283066000091,,,,001,2021_Apr_30_1136,list_pa,2021.1.4,59.909943374365945,
sounds/droite.ogg,0.7,,2,0,2,0,0,2,2,41,,,,,255.4133935299993,254.72868790000211,,,,001,2021_Apr_30_1136,list_pa,2021.1.4,59.909943374365945,
sounds/droite.ogg,0.7,,2,0,2,0,0,3,3,40,,,,,256.91379523000217,256.2282271999866,,,,001,2021_Apr_30_1136,list_pa,2021.1.4,59.909943374365945,
sounds/droite.ogg,0.7,,2,0,2,0,0,4,4,42,,,,,258.4135661300039,257.72849139999016,,,,001,2021_Apr_30_1136,list_pa,2021.1.4,59.909943374365945,
sounds/gauche.ogg,0.7,,2,0,2,0,0,5,5,17,,,,,259.9140287300048,259.22887069999706,,,,001,2021_Apr_30_1136,list_pa,2021.1.4,59.909943374365945,
sounds/droite.ogg,0.7,,2,0,2,0,0,6,6,34,,,,,261.4142482299882,260.728893099993,,,,001,2021_Apr_30_1136,list_pa,2021.1.4,59.909943374365945,
sounds/droite.ogg,0.7,,2,0,2,0,0,7,7,46,,,,,262.9146297300118,262.22991749999346,,,,001,2021_Apr_30_1136,list_pa,2021.1.4,59.909943374365945,
sounds/droite.ogg,0.7,,2,0,2,0,0,8,8,47,,,,,264.41523713000936,263.72980860000825,,,,001,2021_Apr_30_1136,list_pa,2021.1.4,59.909943374365945,
sounds/gauche.ogg,0.7,,2,0,2,0,0,9,9,6,,,,,265.91606062999347,265.2308102000097,,,,001,2021_Apr_30_1136,list_pa,2021.1.4,59.909943374365945,
sounds/gauche.ogg,0.7,,2,0,2,0,0,10,10,14,,,,,267.41595953000945,266.7311305000039,,,,001,2021_Apr_30_1136,list_pa,2021.1.4,59.909943374365945,
sounds/gauche.ogg,0.7,,2,0,2,0,0,11,11,16,,,,,268.9160113299964,268.2302903000091,,,,001,2021_Apr_30_1136,list_pa,2021.1.4,59.909943374365945,
sounds/droite.ogg,0.7,,2,0,2,0,0,12,12,28,,,,,270.4161850300094,269.7320269999909,,,,001,2021_Apr_30_1136,list_pa,2021.1.4,59.909943374365945,
sounds/gauche.ogg,0.7,,2,0,2,0,0,13,13,24,,,,,271.9176312299911,271.231678799988,,,,001,2021_Apr_30_1136,list_pa,2021.1.4,59.909943374365945,
sounds/gauche.ogg,0.7,,2,0,2,0,0,14,14,20,,,,,273.433638429991,272.7484802000108,,,,001,2021_Apr_30_1136,list_pa,2021.1.4,59.909943374365945,
sounds/gauche.ogg,0.7,,2,0,2,0,0,15,15,1,,,,,274.9337344299944,274.2492116999929,,,,001,2021_Apr_30_1136,list_pa,2021.1.4,59.909943374365945,
sounds/gauche.ogg,0.7,,2,0,2,0,0,16,16,18,,,,,276.4343289300101,275.74932020000415,,,,001,2021_Apr_30_1136,list_pa,2021.1.4,59.909943374365945,
sounds/gauche.ogg,0.7,,2,0,2,0,0,17,17,10,,,,,277.93478102998927,277.2492154999927,,,,001,2021_Apr_30_1136,list_pa,2021.1.4,59.909943374365945,
sounds/gauche.ogg,0.7,,2,0,2,0,0,18,18,5,,,,,279.43545923000204,278.7497868000064,,,,001,2021_Apr_30_1136,list_pa,2021.1.4,59.909943374365945,
sounds/gauche.ogg,0.7,,2,0,2,0,0,19,19,12,,,,,280.9350326300133,280.25065760000143,,,,001,2021_Apr_30_1136,list_pa,2021.1.4,59.909943374365945,
sounds/droite.ogg,0.7,,2,0,2,0,0,20,20,36,,,,,282.4359679300047,None,,,,001,2021_Apr_30_1136,list_pa,2021.1.4,59.909943374365945,
sounds/droite.ogg,0.7,,2,0,2,0,0,21,21,39,,,,,283.9357718299958,283.2517862000095,,,,001,2021_Apr_30_1136,list_pa,2021.1.4,59.909943374365945,
sounds/droite.ogg,0.7,,2,0,2,0,0,22,22,44,,,,,285.4360787300044,284.7517153999943,,,,001,2021_Apr_30_1136,list_pa,2021.1.4,59.909943374365945,
sounds/droite.ogg,0.7,,2,0,2,0,0,23,23,32,,,,,286.93649072999835,None,,,,001,2021_Apr_30_1136,list_pa,2021.1.4,59.909943374365945,
sounds/gauche.ogg,0.7,,2,0,2,0,0,24,24,11,,,,,288.4367007299967,287.7522708000033,,,,001,2021_Apr_30_1136,list_pa,2021.1.4,59.909943374365945,
sounds/droite.ogg,0.7,,2,0,2,0,0,25,25,35,,,,,289.93700823000984,289.2522633000044,,,,001,2021_Apr_30_1136,list_pa,2021.1.4,59.909943374365945,
sounds/gauche.ogg,0.7,,2,0,2,0,0,26,26,8,,,,,291.4373702300014,290.7514927999873,,,,001,2021_Apr_30_1136,list_pa,2021.1.4,59.909943374365945,
sounds/droite.ogg,0.7,,2,0,2,0,0,27,27,38,,,,,292.9378709300014,None,,,,001,2021_Apr_30_1136,list_pa,2021.1.4,59.909943374365945,
sounds/gauche.ogg,0.7,,2,0,2,0,0,28,28,0,,,,,294.4379733299953,293.75281070001074,,,,001,2021_Apr_30_1136,list_pa,2021.1.4,59.909943374365945,
sounds/droite.ogg,0.7,,2,0,2,0,0,29,29,26,,,,,295.93837583000425,295.2532014999888,,,,001,2021_Apr_30_1136,list_pa,2021.1.4,59.909943374365945,
sounds/gauche.ogg,0.7,,2,0,2,0,0,30,30,3,,,,,297.4392341299914,296.7537934000138,,,,001,2021_Apr_30_1136,list_pa,2021.1.4,59.909943374365945,
sounds/gauche.ogg,0.7,,2,0,2,0,0,31,31,22,,,,,298.93885343000295,298.25407269998686,,,,001,2021_Apr_30_1136,list_pa,2021.1.4,59.909943374365945,
sounds/gauche.ogg,0.7,,2,0,2,0,0,32,32,23,,,,,300.4392740300042,None,,,,001,2021_Apr_30_1136,list_pa,2021.1.4,59.909943374365945,
sounds/droite.ogg,0.7,,2,0,2,0,0,33,33,48,,,,,301.9397712300066,301.2544476999901,,,,001,2021_Apr_30_1136,list_pa,2021.1.4,59.909943374365945,
sounds/gauche.ogg,0.7,,2,0,2,0,0,34,34,13,,,,,303.4397862300044,302.75498600001447,,,,001,2021_Apr_30_1136,list_pa,2021.1.4,59.909943374365945,
sounds/gauche.ogg,0.7,,2,0,2,0,0,35,35,7,,,,,304.9399073299952,None,,,,001,2021_Apr_30_1136,list_pa,2021.1.4,59.909943374365945,
sounds/droite.ogg,0.7,,2,0,2,0,0,36,36,37,,,,,306.4403026300075,305.7557033000048,,,,001,2021_Apr_30_1136,list_pa,2021.1.4,59.909943374365945,
sounds/droite.ogg,0.7,,2,0,2,0,0,37,37,45,,,,,307.94122383000797,307.2556855000148,,,,001,2021_Apr_30_1136,list_pa,2021.1.4,59.909943374365945,
sounds/droite.ogg,0.7,,2,0,2,0,0,38,38,29,,,,,309.45711122999785,None,,,,001,2021_Apr_30_1136,list_pa,2021.1.4,59.909943374365945,
sounds/droite.ogg,0.7,,2,0,2,0,0,39,39,25,,,,,310.9582251300104,310.27286530000856,,,,001,2021_Apr_30_1136,list_pa,2021.1.4,59.909943374365945,
sounds/gauche.ogg,0.7,,2,0,2,0,0,40,40,15,,,,,312.458390229987,311.7729524000024,,,,001,2021_Apr_30_1136,list_pa,2021.1.4,59.909943374365945,
sounds/droite.ogg,0.7,,2,0,2,0,0,41,41,43,,,,,313.9587128299987,313.27327880001394,,,,001,2021_Apr_30_1136,list_pa,2021.1.4,59.909943374365945,
sounds/droite.ogg,0.7,,2,0,2,0,0,42,42,33,,,,,315.45868323000616,None,,,,001,2021_Apr_30_1136,list_pa,2021.1.4,59.909943374365945,
sounds/gauche.ogg,0.7,,2,0,2,0,0,43,43,9,,,,,316.9593211300031,316.2739709999878,,,,001,2021_Apr_30_1136,list_pa,2021.1.4,59.909943374365945,
sounds/droite.ogg,0.7,,2,0,2,0,0,44,44,30,,,,,318.4603438299906,317.77455400000326,,,,001,2021_Apr_30_1136,list_pa,2021.1.4,59.909943374365945,
sounds/droite.ogg,0.7,,2,0,2,0,0,45,45,31,,,,,319.9597539300099,None,,,,001,2021_Apr_30_1136,list_pa,2021.1.4,59.909943374365945,
sounds/droite.ogg,0.7,,2,0,2,0,0,46,46,49,,,,,321.45994923001274,320.77532789998804,,,,001,2021_Apr_30_1136,list_pa,2021.1.4,59.909943374365945,
sounds/gauche.ogg,0.7,,2,0,2,0,0,47,47,21,,,,,322.96056803000977,322.2756056000071,,,,001,2021_Apr_30_1136,list_pa,2021.1.4,59.909943374365945,
sounds/gauche.ogg,0.7,,2,0,2,0,0,48,48,4,,,,,324.4612766299921,323.77566469999147,,,,001,2021_Apr_30_1136,list_pa,2021.1.4,59.909943374365945,
sounds/gauche.ogg,0.7,,2,0,2,0,0,49,49,2,,,,,325.96081983000624,325.27503970000544,,,,001,2021_Apr_30_1136,list_pa,2021.1.4,59.909943374365945,
,,30,2,0,2,0,,,,,0,0,0,0,,,326.8092437000014,None,,001,2021_Apr_30_1136,list_pa,2021.1.4,59.909943374365945,
,,29,2,0,2,0,,,,,0,1,1,1,,,327.792958200007,None,,001,2021_Apr_30_1136,list_pa,2021.1.4,59.909943374365945,
,,28,2,0,2,0,,,,,0,2,2,2,,,328.7929671999882,None,,001,2021_Apr_30_1136,list_pa,2021.1.4,59.909943374365945,
,,27,2,0,2,0,,,,,0,3,3,3,,,329.79351889999816,None,,001,2021_Apr_30_1136,list_pa,2021.1.4,59.909943374365945,
,,26,2,0,2,0,,,,,0,4,4,4,,,330.7927980000095,None,,001,2021_Apr_30_1136,list_pa,2021.1.4,59.909943374365945,
,,25,2,0,2,0,,,,,0,5,5,5,,,331.79359970000223,None,,001,2021_Apr_30_1136,list_pa,2021.1.4,59.909943374365945,
,,24,2,0,2,0,,,,,0,6,6,6,,,332.79444210001384,None,,001,2021_Apr_30_1136,list_pa,2021.1.4,59.909943374365945,
,,23,2,0,2,0,,,,,0,7,7,7,,,333.7940521000128,None,,001,2021_Apr_30_1136,list_pa,2021.1.4,59.909943374365945,
,,22,2,0,2,0,,,,,0,8,8,8,,,334.7944773999916,None,,001,2021_Apr_30_1136,list_pa,2021.1.4,59.909943374365945,
,,21,2,0,2,0,,,,,0,9,9,9,,,335.77775219999603,None,,001,2021_Apr_30_1136,list_pa,2021.1.4,59.909943374365945,
,,20,2,0,2,0,,,,,0,10,10,10,,,336.79459450001013,None,,001,2021_Apr_30_1136,list_pa,2021.1.4,59.909943374365945,
,,19,2,0,2,0,,,,,0,11,11,11,,,337.7954529999988,None,,001,2021_Apr_30_1136,list_pa,2021.1.4,59.909943374365945,
,,18,2,0,2,0,,,,,0,12,12,12,,,338.79561619999004,None,,001,2021_Apr_30_1136,list_pa,2021.1.4,59.909943374365945,
,,17,2,0,2,0,,,,,0,13,13,13,,,339.79559880000306,None,,001,2021_Apr_30_1136,list_pa,2021.1.4,59.909943374365945,
,,16,2,0,2,0,,,,,0,14,14,14,,,340.7953656000027,None,,001,2021_Apr_30_1136,list_pa,2021.1.4,59.909943374365945,
,,15,2,0,2,0,,,,,0,15,15,15,,,341.7793120999995,None,,001,2021_Apr_30_1136,list_pa,2021.1.4,59.909943374365945,
,,14,2,0,2,0,,,,,0,16,16,16,,,342.77958289999515,None,,001,2021_Apr_30_1136,list_pa,2021.1.4,59.909943374365945,
,,13,2,0,2,0,,,,,0,17,17,17,,,343.77994149998995,None,,001,2021_Apr_30_1136,list_pa,2021.1.4,59.909943374365945,
,,12,2,0,2,0,,,,,0,18,18,18,,,344.7795540000079,None,,001,2021_Apr_30_1136,list_pa,2021.1.4,59.909943374365945,
,,11,2,0,2,0,,,,,0,19,19,19,,,345.780159499991,None,,001,2021_Apr_30_1136,list_pa,2021.1.4,59.909943374365945,
,,10,2,0,2,0,,,,,0,20,20,20,,,346.7809819999966,None,,001,2021_Apr_30_1136,list_pa,2021.1.4,59.909943374365945,
,,9,2,0,2,0,,,,,0,21,21,21,,,347.78058469999814,None,,001,2021_Apr_30_1136,list_pa,2021.1.4,59.909943374365945,
,,8,2,0,2,0,,,,,0,22,22,22,,,348.7805934000062,None,,001,2021_Apr_30_1136,list_pa,2021.1.4,59.909943374365945,
,,7,2,0,2,0,,,,,0,23,23,23,,,349.7808505000139,None,,001,2021_Apr_30_1136,list_pa,2021.1.4,59.909943374365945,
,,6,2,0,2,0,,,,,0,24,24,24,,,350.78172669999185,None,,001,2021_Apr_30_1136,list_pa,2021.1.4,59.909943374365945,
,,5,2,0,2,0,,,,,0,25,25,25,,,351.7817047999997,None,,001,2021_Apr_30_1136,list_pa,2021.1.4,59.909943374365945,
,,4,2,0,2,0,,,,,0,26,26,26,,,352.781988200004,None,,001,2021_Apr_30_1136,list_pa,2021.1.4,59.909943374365945,
,,3,2,0,2,0,,,,,0,27,27,27,,,353.7821327999991,None,,001,2021_Apr_30_1136,list_pa,2021.1.4,59.909943374365945,
,,2,2,0,2,0,,,,,0,28,28,28,,,354.7809569000092,None,,001,2021_Apr_30_1136,list_pa,2021.1.4,59.909943374365945,
,,1,2,0,2,0,,,,,0,29,29,29,,,355.78234480001265,None,,001,2021_Apr_30_1136,list_pa,2021.1.4,59.909943374365945,
,,0,2,0,2,0,,,,,0,30,30,30,,,356.7828269999882,None,,001,2021_Apr_30_1136,list_pa,2021.1.4,59.909943374365945,
,,,2,0,2,0,,,,,,,,,,,,,,001,2021_Apr_30_1136,list_pa,2021.1.4,59.909943374365945,
sounds/droite.ogg,0.7,,3,0,3,0,0,0,0,27,,,,,358.500705129985,None,,,,001,2021_Apr_30_1136,list_pa,2021.1.4,59.909943374365945,
sounds/gauche.ogg,0.7,,3,0,3,0,0,1,1,21,,,,,360.00086732999773,None,,,,001,2021_Apr_30_1136,list_pa,2021.1.4,59.909943374365945,
sounds/droite.ogg,0.7,,3,0,3,0,0,2,2,35,,,,,361.5012107299932,360.81672000000253,,,,001,2021_Apr_30_1136,list_pa,2021.1.4,59.909943374365945,
sounds/gauche.ogg,0.7,,3,0,3,0,0,3,3,17,,,,,363.0015517299995,362.3163757000002,,,,001,2021_Apr_30_1136,list_pa,2021.1.4,59.909943374365945,
sounds/droite.ogg,0.7,,3,0,3,0,0,4,4,29,,,,,364.5019388300076,363.8166701000009,,,,001,2021_Apr_30_1136,list_pa,2021.1.4,59.909943374365945,
sounds/gauche.ogg,0.7,,3,0,3,0,0,5,5,18,,,,,366.00246643000867,365.31775119999656,,,,001,2021_Apr_30_1136,list_pa,2021.1.4,59.909943374365945,
sounds/droite.ogg,0.7,,3,0,3,0,0,6,6,49,,,,,367.5021996299853,366.8173184999905,,,,001,2021_Apr_30_1136,list_pa,2021.1.4,59.909943374365945,
sounds/droite.ogg,0.7,,3,0,3,0,0,7,7,26,,,,,369.0034994299873,368.31777920000604,,,,001,2021_Apr_30_1136,list_pa,2021.1.4,59.909943374365945,
sounds/droite.ogg,0.7,,3,0,3,0,0,8,8,36,,,,,370.51984953000795,None,,,,001,2021_Apr_30_1136,list_pa,2021.1.4,59.909943374365945,
sounds/gauche.ogg,0.7,,3,0,3,0,0,9,9,24,,,,,372.020293430012,371.3353361999907,,,,001,2021_Apr_30_1136,list_pa,2021.1.4,59.909943374365945,
sounds/droite.ogg,0.7,,3,0,3,0,0,10,10,45,,,,,373.5203316300118,372.8358051000105,,,,001,2021_Apr_30_1136,list_pa,2021.1.4,59.909943374365945,
sounds/gauche.ogg,0.7,,3,0,3,0,0,11,11,2,,,,,375.0210778299894,None,,,,001,2021_Apr_30_1136,list_pa,2021.1.4,59.909943374365945,
sounds/gauche.ogg,0.7,,3,0,3,0,0,12,12,14,,,,,376.52129033000676,375.83624810000765,,,,001,2021_Apr_30_1136,list_pa,2021.1.4,59.909943374365945,
sounds/droite.ogg,0.7,,3,0,3,0,0,13,13,37,,,,,378.02120963000345,377.33654049999313,,,,001,2021_Apr_30_1136,list_pa,2021.1.4,59.909943374365945,
sounds/gauche.ogg,0.7,,3,0,3,0,0,14,14,15,,,,,379.52144202999773,378.837102599995,,,,001,2021_Apr_30_1136,list_pa,2021.1.4,59.909943374365945,
sounds/droite.ogg,0.7,,3,0,3,0,0,15,15,42,,,,,381.02198352998823,380.336718400009,,,,001,2021_Apr_30_1136,list_pa,2021.1.4,59.909943374365945,
sounds/gauche.ogg,0.7,,3,0,3,0,0,16,16,19,,,,,382.522241029999,381.8372304000077,,,,001,2021_Apr_30_1136,list_pa,2021.1.4,59.909943374365945,
sounds/gauche.ogg,0.7,,3,0,3,0,0,17,17,5,,,,,384.022793929989,383.33805560000474,,,,001,2021_Apr_30_1136,list_pa,2021.1.4,59.909943374365945,
sounds/droite.ogg,0.7,,3,0,3,0,0,18,18,31,,,,,385.5229429299885,384.8382042000012,,,,001,2021_Apr_30_1136,list_pa,2021.1.4,59.909943374365945,
sounds/droite.ogg,0.7,,3,0,3,0,0,19,19,33,,,,,387.02324293000277,386.3380690999911,,,,001,2021_Apr_30_1136,list_pa,2021.1.4,59.909943374365945,
sounds/gauche.ogg,0.7,,3,0,3,0,0,20,20,4,,,,,388.523589329992,387.8387497999938,,,,001,2021_Apr_30_1136,list_pa,2021.1.4,59.909943374365945,
sounds/gauche.ogg,0.7,,3,0,3,0,0,21,21,20,,,,,390.02397252999947,389.33863169999677,,,,001,2021_Apr_30_1136,list_pa,2021.1.4,59.909943374365945,
sounds/gauche.ogg,0.7,,3,0,3,0,0,22,22,7,,,,,391.5243041299924,None,,,,001,2021_Apr_30_1136,list_pa,2021.1.4,59.909943374365945,
sounds/droite.ogg,0.7,,3,0,3,0,0,23,23,41,,,,,393.0246409299958,392.33895080001093,,,,001,2021_Apr_30_1136,list_pa,2021.1.4,59.909943374365945,
sounds/droite.ogg,0.7,,3,0,3,0,0,24,24,38,,,,,394.5253797300044,393.83983020001324,,,,001,2021_Apr_30_1136,list_pa,2021.1.4,59.909943374365945,
sounds/gauche.ogg,0.7,,3,0,3,0,0,25,25,10,,,,,396.02488512999264,None,,,,001,2021_Apr_30_1136,list_pa,2021.1.4,59.909943374365945,
sounds/gauche.ogg,0.7,,3,0,3,0,0,26,26,16,,,,,397.5259217299987,396.84049659999437,,,,001,2021_Apr_30_1136,list_pa,2021.1.4,59.909943374365945,
sounds/droite.ogg,0.7,,3,0,3,0,0,27,27,48,,,,,399.0260639300046,398.3404051999969,,,,001,2021_Apr_30_1136,list_pa,2021.1.4,59.909943374365945,
sounds/gauche.ogg,0.7,,3,0,3,0,0,28,28,3,,,,,400.5261304299871,399.83994500001427,,,,001,2021_Apr_30_1136,list_pa,2021.1.4,59.909943374365945,
sounds/droite.ogg,0.7,,3,0,3,0,0,29,29,32,,,,,402.0270091300132,401.3420374999987,,,,001,2021_Apr_30_1136,list_pa,2021.1.4,59.909943374365945,
sounds/gauche.ogg,0.7,,3,0,3,0,0,30,30,13,,,,,403.5266743299959,402.8422315999924,,,,001,2021_Apr_30_1136,list_pa,2021.1.4,59.909943374365945,
sounds/droite.ogg,0.7,,3,0,3,0,0,31,31,28,,,,,405.02758883000354,404.3421161000151,,,,001,2021_Apr_30_1136,list_pa,2021.1.4,59.909943374365945,
sounds/gauche.ogg,0.7,,3,0,3,0,0,32,32,0,,,,,406.527477129997,405.8421805000107,,,,001,2021_Apr_30_1136,list_pa,2021.1.4,59.909943374365945,
sounds/gauche.ogg,0.7,,3,0,3,0,0,33,33,9,,,,,408.0277928299853,None,,,,001,2021_Apr_30_1136,list_pa,2021.1.4,59.909943374365945,
sounds/droite.ogg,0.7,,3,0,3,0,0,34,34,39,,,,,409.529057130008,None,,,,001,2021_Apr_30_1136,list_pa,2021.1.4,59.909943374365945,
sounds/droite.ogg,0.7,,3,0,3,0,0,35,35,47,,,,,411.0290636299993,410.3429271999921,,,,001,2021_Apr_30_1136,list_pa,2021.1.4,59.909943374365945,
sounds/gauche.ogg,0.7,,3,0,3,0,0,36,36,12,,,,,412.5286611299904,411.84296149999136,,,,001,2021_Apr_30_1136,list_pa,2021.1.4,59.909943374365945,
sounds/gauche.ogg,0.7,,3,0,3,0,0,37,37,23,,,,,414.0292359300016,None,,,,001,2021_Apr_30_1136,list_pa,2021.1.4,59.909943374365945,
sounds/droite.ogg,0.7,,3,0,3,0,0,38,38,25,,,,,415.52923842999155,414.8432266000018,,,,001,2021_Apr_30_1136,list_pa,2021.1.4,59.909943374365945,
sounds/gauche.ogg,0.7,,3,0,3,0,0,39,39,8,,,,,417.0297208299977,416.3442757999874,,,,001,2021_Apr_30_1136,list_pa,2021.1.4,59.909943374365945,
sounds/gauche.ogg,0.7,,3,0,3,0,0,40,40,6,,,,,418.5297508299933,417.84475240000756,,,,001,2021_Apr_30_1136,list_pa,2021.1.4,59.909943374365945,
sounds/droite.ogg,0.7,,3,0,3,0,0,41,41,30,,,,,420.03027902999895,419.34464560000924,,,,001,2021_Apr_30_1136,list_pa,2021.1.4,59.909943374365945,
sounds/droite.ogg,0.7,,3,0,3,0,0,42,42,44,,,,,421.530305529997,420.84485279998626,,,,001,2021_Apr_30_1136,list_pa,2021.1.4,59.909943374365945,
sounds/droite.ogg,0.7,,3,0,3,0,0,43,43,43,,,,,423.0305854300037,422.3454658999981,,,,001,2021_Apr_30_1136,list_pa,2021.1.4,59.909943374365945,
sounds/droite.ogg,0.7,,3,0,3,0,0,44,44,40,,,,,424.5308279299876,423.8459830000065,,,,001,2021_Apr_30_1136,list_pa,2021.1.4,59.909943374365945,
sounds/gauche.ogg,0.7,,3,0,3,0,0,45,45,1,,,,,426.03117083000836,425.3458438999951,,,,001,2021_Apr_30_1136,list_pa,2021.1.4,59.909943374365945,
sounds/gauche.ogg,0.7,,3,0,3,0,0,46,46,22,,,,,427.53131112999984,426.8462967000087,,,,001,2021_Apr_30_1136,list_pa,2021.1.4,59.909943374365945,
sounds/droite.ogg,0.7,,3,0,3,0,0,47,47,34,,,,,429.04937402999496,None,,,,001,2021_Apr_30_1136,list_pa,2021.1.4,59.909943374365945,
sounds/droite.ogg,0.7,,3,0,3,0,0,48,48,46,,,,,430.5493408300041,429.86361999998917,,,,001,2021_Apr_30_1136,list_pa,2021.1.4,59.909943374365945,
sounds/gauche.ogg,0.7,,3,0,3,0,0,49,49,11,,,,,432.0488777299994,431.3641690000077,,,,001,2021_Apr_30_1136,list_pa,2021.1.4,59.909943374365945,
,,30,3,0,3,0,,,,,0,0,0,0,,,432.88012210000306,None,,001,2021_Apr_30_1136,list_pa,2021.1.4,59.909943374365945,
,,29,3,0,3,0,,,,,0,1,1,1,,,433.8817047000048,None,,001,2021_Apr_30_1136,list_pa,2021.1.4,59.909943374365945,
,,28,3,0,3,0,,,,,0,2,2,2,,,434.88195420001284,None,,001,2021_Apr_30_1136,list_pa,2021.1.4,59.909943374365945,
,,27,3,0,3,0,,,,,0,3,3,3,,,435.8822843999951,None,,001,2021_Apr_30_1136,list_pa,2021.1.4,59.909943374365945,
,,26,3,0,3,0,,,,,0,4,4,4,,,436.88200000001234,None,,001,2021_Apr_30_1136,list_pa,2021.1.4,59.909943374365945,
,,25,3,0,3,0,,,,,0,5,5,5,,,437.8820488000056,None,,001,2021_Apr_30_1136,list_pa,2021.1.4,59.909943374365945,
,,24,3,0,3,0,,,,,0,6,6,6,,,438.8823790999886,None,,001,2021_Apr_30_1136,list_pa,2021.1.4,59.909943374365945,
,,23,3,0,3,0,,,,,0,7,7,7,,,439.88245330000063,None,,001,2021_Apr_30_1136,list_pa,2021.1.4,59.909943374365945,
,,22,3,0,3,0,,,,,0,8,8,8,,,440.88402810000116,None,,001,2021_Apr_30_1136,list_pa,2021.1.4,59.909943374365945,
,,21,3,0,3,0,,,,,0,9,9,9,,,441.8829168000084,None,,001,2021_Apr_30_1136,list_pa,2021.1.4,59.909943374365945,
,,20,3,0,3,0,,,,,0,10,10,10,,,442.8833794000093,None,,001,2021_Apr_30_1136,list_pa,2021.1.4,59.909943374365945,
,,19,3,0,3,0,,,,,0,11,11,11,,,443.88302380000823,None,,001,2021_Apr_30_1136,list_pa,2021.1.4,59.909943374365945,
,,18,3,0,3,0,,,,,0,12,12,12,,,444.88343180000084,None,,001,2021_Apr_30_1136,list_pa,2021.1.4,59.909943374365945,
,,17,3,0,3,0,,,,,0,13,13,13,,,445.8833880999882,None,,001,2021_Apr_30_1136,list_pa,2021.1.4,59.909943374365945,
,,16,3,0,3,0,,,,,0,14,14,14,,,446.88379839999834,None,,001,2021_Apr_30_1136,list_pa,2021.1.4,59.909943374365945,
,,15,3,0,3,0,,,,,0,15,15,15,,,447.8839197999914,None,,001,2021_Apr_30_1136,list_pa,2021.1.4,59.909943374365945,
,,14,3,0,3,0,,,,,0,16,16,16,,,448.88383330000215,None,,001,2021_Apr_30_1136,list_pa,2021.1.4,59.909943374365945,
,,13,3,0,3,0,,,,,0,17,17,17,,,449.8840872999863,None,,001,2021_Apr_30_1136,list_pa,2021.1.4,59.909943374365945,
,,12,3,0,3,0,,,,,0,18,18,18,,,450.8850111000065,None,,001,2021_Apr_30_1136,list_pa,2021.1.4,59.909943374365945,
,,11,3,0,3,0,,,,,0,19,19,19,,,451.8852331000089,None,,001,2021_Apr_30_1136,list_pa,2021.1.4,59.909943374365945,
,,10,3,0,3,0,,,,,0,20,20,20,,,452.8854241000081,None,,001,2021_Apr_30_1136,list_pa,2021.1.4,59.909943374365945,
,,9,3,0,3,0,,,,,0,21,21,21,,,453.88549640000565,None,,001,2021_Apr_30_1136,list_pa,2021.1.4,59.909943374365945,
,,8,3,0,3,0,,,,,0,22,22,22,,,454.8854900999868,None,,001,2021_Apr_30_1136,list_pa,2021.1.4,59.909943374365945,
,,7,3,0,3,0,,,,,0,23,23,23,,,455.88489429999026,None,,001,2021_Apr_30_1136,list_pa,2021.1.4,59.909943374365945,
,,6,3,0,3,0,,,,,0,24,24,24,,,456.88580560000264,None,,001,2021_Apr_30_1136,list_pa,2021.1.4,59.909943374365945,
,,5,3,0,3,0,,,,,0,25,25,25,,,457.88593749998836,None,,001,2021_Apr_30_1136,list_pa,2021.1.4,59.909943374365945,
,,4,3,0,3,0,,,,,0,26,26,26,,,458.8702663000149,None,,001,2021_Apr_30_1136,list_pa,2021.1.4,59.909943374365945,
,,3,3,0,3,0,,,,,0,27,27,27,,,459.87038989999564,None,,001,2021_Apr_30_1136,list_pa,2021.1.4,59.909943374365945,
,,2,3,0,3,0,,,,,0,28,28,28,,,460.87072959999205,None,,001,2021_Apr_30_1136,list_pa,2021.1.4,59.909943374365945,
,,1,3,0,3,0,,,,,0,29,29,29,,,461.8709082000132,None,,001,2021_Apr_30_1136,list_pa,2021.1.4,59.909943374365945,
,,0,3,0,3,0,,,,,0,30,30,30,,,462.87070369999856,None,,001,2021_Apr_30_1136,list_pa,2021.1.4,59.909943374365945,
,,,3,0,3,0,,,,,,,,,,,,,,001,2021_Apr_30_1136,list_pa,2021.1.4,59.909943374365945,
sounds/gauche.ogg,0.7,,4,0,4,0,0,0,0,13,,,,,464.5893675300118,None,,,,001,2021_Apr_30_1136,list_pa,2021.1.4,59.909943374365945,
sounds/gauche.ogg,0.7,,4,0,4,0,0,1,1,3,,,,,466.08974362999436,465.4040800000075,,,,001,2021_Apr_30_1136,list_pa,2021.1.4,59.909943374365945,
sounds/droite.ogg,0.7,,4,0,4,0,0,2,2,38,,,,,467.5899668300059,466.9046967999893,,,,001,2021_Apr_30_1136,list_pa,2021.1.4,59.909943374365945,
sounds/droite.ogg,0.7,,4,0,4,0,0,3,3,27,,,,,469.08993663000876,None,,,,001,2021_Apr_30_1136,list_pa,2021.1.4,59.909943374365945,
sounds/droite.ogg,0.7,,4,0,4,0,0,4,4,43,,,,,470.5885538299859,469.9051893000142,,,,001,2021_Apr_30_1136,list_pa,2021.1.4,59.909943374365945,
sounds/droite.ogg,0.7,,4,0,4,0,0,5,5,44,,,,,472.0907900299877,471.4057938999904,,,,001,2021_Apr_30_1136,list_pa,2021.1.4,59.909943374365945,
sounds/droite.ogg,0.7,,4,0,4,0,0,6,6,45,,,,,473.59070073000623,472.90562689999933,,,,001,2021_Apr_30_1136,list_pa,2021.1.4,59.909943374365945,
sounds/gauche.ogg,0.7,,4,0,4,0,0,7,7,4,,,,,475.0912231299968,474.4064070000022,,,,001,2021_Apr_30_1136,list_pa,2021.1.4,59.909943374365945,
sounds/gauche.ogg,0.7,,4,0,4,0,0,8,8,8,,,,,476.591319230001,475.90638000000035,,,,001,2021_Apr_30_1136,list_pa,2021.1.4,59.909943374365945,
sounds/gauche.ogg,0.7,,4,0,4,0,0,9,9,5,,,,,478.09154642998476,477.4065169999958,,,,001,2021_Apr_30_1136,list_pa,2021.1.4,59.909943374365945,
sounds/gauche.ogg,0.7,,4,0,4,0,0,10,10,7,,,,,479.5921113300079,478.9069242000114,,,,001,2021_Apr_30_1136,list_pa,2021.1.4,59.909943374365945,
sounds/gauche.ogg,0.7,,4,0,4,0,0,11,11,16,,,,,481.0924273299985,480.4077793000033,,,,001,2021_Apr_30_1136,list_pa,2021.1.4,59.909943374365945,
sounds/droite.ogg,0.7,,4,0,4,0,0,12,12,25,,,,,482.59243593000576,481.9070359999896,,,,001,2021_Apr_30_1136,list_pa,2021.1.4,59.909943374365945,
sounds/gauche.ogg,0.7,,4,0,4,0,0,13,13,21,,,,,484.0927882300108,483.4065699999919,,,,001,2021_Apr_30_1136,list_pa,2021.1.4,59.909943374365945,
sounds/droite.ogg,0.7,,4,0,4,0,0,14,14,40,,,,,485.5936257299851,None,,,,001,2021_Apr_30_1136,list_pa,2021.1.4,59.909943374365945,
sounds/droite.ogg,0.7,,4,0,4,0,0,15,15,37,,,,,487.09360382999296,486.4085613999923,,,,001,2021_Apr_30_1136,list_pa,2021.1.4,59.909943374365945,
sounds/droite.ogg,0.7,,4,0,4,0,0,16,16,29,,,,,488.6105022299977,None,,,,001,2021_Apr_30_1136,list_pa,2021.1.4,59.909943374365945,
sounds/gauche.ogg,0.7,,4,0,4,0,0,17,17,12,,,,,490.11114603001045,489.4258545000048,,,,001,2021_Apr_30_1136,list_pa,2021.1.4,59.909943374365945,
sounds/droite.ogg,0.7,,4,0,4,0,0,18,18,42,,,,,491.6111720300047,490.9260712999967,,,,001,2021_Apr_30_1136,list_pa,2021.1.4,59.909943374365945,
sounds/gauche.ogg,0.7,,4,0,4,0,0,19,19,24,,,,,493.111118430004,492.4265849000076,,,,001,2021_Apr_30_1136,list_pa,2021.1.4,59.909943374365945,
sounds/droite.ogg,0.7,,4,0,4,0,0,20,20,41,,,,,494.6118154299853,493.92709879999165,,,,001,2021_Apr_30_1136,list_pa,2021.1.4,59.909943374365945,
sounds/droite.ogg,0.7,,4,0,4,0,0,21,21,31,,,,,496.11183273000063,495.42716319998726,,,,001,2021_Apr_30_1136,list_pa,2021.1.4,59.909943374365945,
sounds/gauche.ogg,0.7,,4,0,4,0,0,22,22,9,,,,,497.6121435300098,496.927217199991,,,,001,2021_Apr_30_1136,list_pa,2021.1.4,59.909943374365945,
sounds/gauche.ogg,0.7,,4,0,4,0,0,23,23,6,,,,,499.11280493001107,498.4273470999906,,,,001,2021_Apr_30_1136,list_pa,2021.1.4,59.909943374365945,
sounds/gauche.ogg,0.7,,4,0,4,0,0,24,24,17,,,,,500.6133738300065,499.9271144999948,,,,001,2021_Apr_30_1136,list_pa,2021.1.4,59.909943374365945,
sounds/droite.ogg,0.7,,4,0,4,0,0,25,25,30,,,,,502.11303882998766,501.4282823000103,,,,001,2021_Apr_30_1136,list_pa,2021.1.4,59.909943374365945,
sounds/droite.ogg,0.7,,4,0,4,0,0,26,26,32,,,,,503.6135996300087,502.9288729999971,,,,001,2021_Apr_30_1136,list_pa,2021.1.4,59.909943374365945,
sounds/gauche.ogg,0.7,,4,0,4,0,0,27,27,19,,,,,505.1141497300065,None,,,,001,2021_Apr_30_1136,list_pa,2021.1.4,59.909943374365945,
sounds/gauche.ogg,0.7,,4,0,4,0,0,28,28,0,,,,,506.6142720300064,505.9290488999977,,,,001,2021_Apr_30_1136,list_pa,2021.1.4,59.909943374365945,
sounds/gauche.ogg,0.7,,4,0,4,0,0,29,29,1,,,,,508.11420363000946,507.42938730001333,,,,001,2021_Apr_30_1136,list_pa,2021.1.4,59.909943374365945,
sounds/droite.ogg,0.7,,4,0,4,0,0,30,30,34,,,,,509.61522172999105,508.92899009998655,,,,001,2021_Apr_30_1136,list_pa,2021.1.4,59.909943374365945,
sounds/gauche.ogg,0.7,,4,0,4,0,0,31,31,11,,,,,511.1311412299925,None,,,,001,2021_Apr_30_1136,list_pa,2021.1.4,59.909943374365945,
sounds/gauche.ogg,0.7,,4,0,4,0,0,32,32,15,,,,,512.6318479299895,511.947039199993,,,,001,2021_Apr_30_1136,list_pa,2021.1.4,59.909943374365945,
sounds/gauche.ogg,0.7,,4,0,4,0,0,33,33,2,,,,,514.1333549299976,513.446872200002,,,,001,2021_Apr_30_1136,list_pa,2021.1.4,59.909943374365945,
sounds/gauche.ogg,0.7,,4,0,4,0,0,34,34,18,,,,,515.6500120299985,None,,,,001,2021_Apr_30_1136,list_pa,2021.1.4,59.909943374365945,
sounds/droite.ogg,0.7,,4,0,4,0,0,35,35,47,,,,,517.1501655300032,516.4641739999934,,,,001,2021_Apr_30_1136,list_pa,2021.1.4,59.909943374365945,
sounds/gauche.ogg,0.7,,4,0,4,0,0,36,36,14,,,,,518.6499138300074,None,,,,001,2021_Apr_30_1136,list_pa,2021.1.4,59.909943374365945,
sounds/gauche.ogg,0.7,,4,0,4,0,0,37,37,10,,,,,520.1506369300129,519.4651234000048,,,,001,2021_Apr_30_1136,list_pa,2021.1.4,59.909943374365945,
sounds/droite.ogg,0.7,,4,0,4,0,0,38,38,28,,,,,521.65070153001,520.9655083999969,,,,001,2021_Apr_30_1136,list_pa,2021.1.4,59.909943374365945,
sounds/droite.ogg,0.7,,4,0,4,0,0,39,39,33,,,,,523.1509346300096,522.46571270001,,,,001,2021_Apr_30_1136,list_pa,2021.1.4,59.909943374365945,
sounds/droite.ogg,0.7,,4,0,4,0,0,40,40,35,,,,,524.6511384299898,523.9657762999996,,,,001,2021_Apr_30_1136,list_pa,2021.1.4,59.909943374365945,
sounds/droite.ogg,0.7,,4,0,4,0,0,41,41,48,,,,,526.1513673299866,525.4663807000034,,,,001,2021_Apr_30_1136,list_pa,2021.1.4,59.909943374365945,
sounds/droite.ogg,0.7,,4,0,4,0,0,42,42,46,,,,,527.6516487300047,526.9663727000006,,,,001,2021_Apr_30_1136,list_pa,2021.1.4,59.909943374365945,
sounds/droite.ogg,0.7,,4,0,4,0,0,43,43,49,,,,,529.1522444300005,528.4671234000125,,,,001,2021_Apr_30_1136,list_pa,2021.1.4,59.909943374365945,
sounds/droite.ogg,0.7,,4,0,4,0,0,44,44,26,,,,,530.6521243299882,529.9674599000136,,,,001,2021_Apr_30_1136,list_pa,2021.1.4,59.909943374365945,
sounds/droite.ogg,0.7,,4,0,4,0,0,45,45,39,,,,,532.1528187300079,531.4680787000107,,,,001,2021_Apr_30_1136,list_pa,2021.1.4,59.909943374365945,
sounds/gauche.ogg,0.7,,4,0,4,0,0,46,46,22,,,,,533.6530112299894,532.9676498000044,,,,001,2021_Apr_30_1136,list_pa,2021.1.4,59.909943374365945,
sounds/gauche.ogg,0.7,,4,0,4,0,0,47,47,20,,,,,535.1538955299999,None,,,,001,2021_Apr_30_1136,list_pa,2021.1.4,59.909943374365945,
sounds/gauche.ogg,0.7,,4,0,4,0,0,48,48,23,,,,,536.6531706300099,535.9685300000128,,,,001,2021_Apr_30_1136,list_pa,2021.1.4,59.909943374365945,
sounds/droite.ogg,0.7,,4,0,4,0,0,49,49,36,,,,,538.154016929993,537.4692924999981,,,,001,2021_Apr_30_1136,list_pa,2021.1.4,59.909943374365945,
,,30,4,0,4,0,,,,,0,0,0,0,,,539.0018904999888,None,,001,2021_Apr_30_1136,list_pa,2021.1.4,59.909943374365945,
,,29,4,0,4,0,,,,,0,1,1,1,,,539.9859775000077,None,,001,2021_Apr_30_1136,list_pa,2021.1.4,59.909943374365945,
,,28,4,0,4,0,,,,,0,2,2,2,,,540.9860742999881,None,,001,2021_Apr_30_1136,list_pa,2021.1.4,59.909943374365945,
,,27,4,0,4,0,,,,,0,3,3,3,,,541.986542300001,None,,001,2021_Apr_30_1136,list_pa,2021.1.4,59.909943374365945,
,,26,4,0,4,0,,,,,0,4,4,4,,,542.9869639000099,None,,001,2021_Apr_30_1136,list_pa,2021.1.4,59.909943374365945,
,,25,4,0,4,0,,,,,0,5,5,5,,,543.9869607000146,None,,001,2021_Apr_30_1136,list_pa,2021.1.4,59.909943374365945,
,,24,4,0,4,0,,,,,0,6,6,6,,,544.9871272000019,None,,001,2021_Apr_30_1136,list_pa,2021.1.4,59.909943374365945,
,,23,4,0,4,0,,,,,0,7,7,7,,,545.9876065000135,None,,001,2021_Apr_30_1136,list_pa,2021.1.4,59.909943374365945,
,,22,4,0,4,0,,,,,0,8,8,8,,,546.9875759000133,None,,001,2021_Apr_30_1136,list_pa,2021.1.4,59.909943374365945,
,,21,4,0,4,0,,,,,0,9,9,9,,,547.9880139000015,None,,001,2021_Apr_30_1136,list_pa,2021.1.4,59.909943374365945,
,,20,4,0,4,0,,,,,0,10,10,10,,,548.9869341999874,None,,001,2021_Apr_30_1136,list_pa,2021.1.4,59.909943374365945,
,,19,4,0,4,0,,,,,0,11,11,11,,,549.9881883999915,None,,001,2021_Apr_30_1136,list_pa,2021.1.4,59.909943374365945,
,,18,4,0,4,0,,,,,0,12,12,12,,,550.9884075000009,None,,001,2021_Apr_30_1136,list_pa,2021.1.4,59.909943374365945,
,,17,4,0,4,0,,,,,0,13,13,13,,,551.9885629999917,None,,001,2021_Apr_30_1136,list_pa,2021.1.4,59.909943374365945,
,,16,4,0,4,0,,,,,0,14,14,14,,,552.9888329000096,None,,001,2021_Apr_30_1136,list_pa,2021.1.4,59.909943374365945,
,,15,4,0,4,0,,,,,0,15,15,15,,,553.9724280000082,None,,001,2021_Apr_30_1136,list_pa,2021.1.4,59.909943374365945,
,,14,4,0,4,0,,,,,0,16,16,16,,,554.9715724000125,None,,001,2021_Apr_30_1136,list_pa,2021.1.4,59.909943374365945,
,,13,4,0,4,0,,,,,0,17,17,17,,,555.9725473000144,None,,001,2021_Apr_30_1136,list_pa,2021.1.4,59.909943374365945,
,,12,4,0,4,0,,,,,0,18,18,18,,,556.9729006999987,None,,001,2021_Apr_30_1136,list_pa,2021.1.4,59.909943374365945,
,,11,4,0,4,0,,,,,0,19,19,19,,,557.972869499994,None,,001,2021_Apr_30_1136,list_pa,2021.1.4,59.909943374365945,
,,10,4,0,4,0,,,,,0,20,20,20,,,558.9729717999871,None,,001,2021_Apr_30_1136,list_pa,2021.1.4,59.909943374365945,
,,9,4,0,4,0,,,,,0,21,21,21,,,559.9735786000092,None,,001,2021_Apr_30_1136,list_pa,2021.1.4,59.909943374365945,
,,8,4,0,4,0,,,,,0,22,22,22,,,560.9735037999926,None,,001,2021_Apr_30_1136,list_pa,2021.1.4,59.909943374365945,
,,7,4,0,4,0,,,,,0,23,23,23,,,561.974211599998,None,,001,2021_Apr_30_1136,list_pa,2021.1.4,59.909943374365945,
,,6,4,0,4,0,,,,,0,24,24,24,,,562.9740446000069,None,,001,2021_Apr_30_1136,list_pa,2021.1.4,59.909943374365945,
,,5,4,0,4,0,,,,,0,25,25,25,,,563.9739903000009,None,,001,2021_Apr_30_1136,list_pa,2021.1.4,59.909943374365945,
,,4,4,0,4,0,,,,,0,26,26,26,,,564.9741241000011,None,,001,2021_Apr_30_1136,list_pa,2021.1.4,59.909943374365945,
,,3,4,0,4,0,,,,,0,27,27,27,,,565.9742732000013,None,,001,2021_Apr_30_1136,list_pa,2021.1.4,59.909943374365945,
,,2,4,0,4,0,,,,,0,28,28,28,,,566.9745413000055,None,,001,2021_Apr_30_1136,list_pa,2021.1.4,59.909943374365945,
,,1,4,0,4,0,,,,,0,29,29,29,,,567.9750444999954,None,,001,2021_Apr_30_1136,list_pa,2021.1.4,59.909943374365945,
,,0,4,0,4,0,,,,,0,30,30,30,,,568.9755136999884,None,,001,2021_Apr_30_1136,list_pa,2021.1.4,59.909943374365945,
,,,4,0,4,0,,,,,,,,,,,,,,001,2021_Apr_30_1136,list_pa,2021.1.4,59.909943374365945,
