word_stimuli,isi,countdown,trials.thisRepN,trials.thisTrialN,trials.thisN,trials.thisIndex,trial_loop.thisRepN,trial_loop.thisTrialN,trial_loop.thisN,trial_loop.thisIndex,trials_2.thisRepN,trials_2.thisTrialN,trials_2.thisN,trials_2.thisIndex,sound_exposure.started,sound_exposure.stopped,text.started,text.stopped,participant,session,date,expName,psychopyVersion,frameRate,
sounds/droite.ogg,0.7,,0,0,0,0,0,0,0,25,,,,,70.26847627001116,None,,,,001,2021_May_03_1335,list_pa,2021.1.4,59.961025315987555,
sounds/droite.ogg,0.7,,0,0,0,0,0,1,1,28,,,,,71.76885216996307,None,,,,001,2021_May_03_1335,list_pa,2021.1.4,59.961025315987555,
sounds/gauche.ogg,0.7,,0,0,0,0,0,2,2,6,,,,,73.30261886997614,None,,,,001,2021_May_03_1335,list_pa,2021.1.4,59.961025315987555,
sounds/droite.ogg,0.7,,0,0,0,0,0,3,3,49,,,,,74.80283757001162,74.11830420000479,,,,001,2021_May_03_1335,list_pa,2021.1.4,59.961025315987555,
sounds/gauche.ogg,0.7,,0,0,0,0,0,4,4,5,,,,,76.30351047001314,75.6183039000025,,,,001,2021_May_03_1335,list_pa,2021.1.4,59.961025315987555,
sounds/gauche.ogg,0.7,,0,0,0,0,0,5,5,3,,,,,77.80421956999926,77.11847819999093,,,,001,2021_May_03_1335,list_pa,2021.1.4,59.961025315987555,
sounds/droite.ogg,0.7,,0,0,0,0,0,6,6,48,,,,,79.30398786998121,78.61937560001388,,,,001,2021_May_03_1335,list_pa,2021.1.4,59.961025315987555,
sounds/droite.ogg,0.7,,0,0,0,0,0,7,7,30,,,,,80.80417166998377,80.11976689996663,,,,001,2021_May_03_1335,list_pa,2021.1.4,59.961025315987555,
sounds/gauche.ogg,0.7,,0,0,0,0,0,8,8,7,,,,,82.30492696997244,81.62000289995922,,,,001,2021_May_03_1335,list_pa,2021.1.4,59.961025315987555,
sounds/droite.ogg,0.7,,0,0,0,0,0,9,9,27,,,,,83.80523556999397,None,,,,001,2021_May_03_1335,list_pa,2021.1.4,59.961025315987555,
sounds/gauche.ogg,0.7,,0,0,0,0,0,10,10,14,,,,,85.30555807000492,84.62069289997453,,,,001,2021_May_03_1335,list_pa,2021.1.4,59.961025315987555,
sounds/droite.ogg,0.7,,0,0,0,0,0,11,11,33,,,,,86.80588156996528,86.1199586999719,,,,001,2021_May_03_1335,list_pa,2021.1.4,59.961025315987555,
sounds/gauche.ogg,0.7,,0,0,0,0,0,12,12,22,,,,,88.30611366998637,87.62134819995845,,,,001,2021_May_03_1335,list_pa,2021.1.4,59.961025315987555,
sounds/gauche.ogg,0.7,,0,0,0,0,0,13,13,12,,,,,89.80644437000156,89.1216344999848,,,,001,2021_May_03_1335,list_pa,2021.1.4,59.961025315987555,
sounds/gauche.ogg,0.7,,0,0,0,0,0,14,14,4,,,,,91.3067055700114,90.62171390000731,,,,001,2021_May_03_1335,list_pa,2021.1.4,59.961025315987555,
sounds/droite.ogg,0.7,,0,0,0,0,0,15,15,37,,,,,92.80677437001141,92.12109099997906,,,,001,2021_May_03_1335,list_pa,2021.1.4,59.961025315987555,
sounds/gauche.ogg,0.7,,0,0,0,0,0,16,16,13,,,,,94.3072861700086,93.62241780001204,,,,001,2021_May_03_1335,list_pa,2021.1.4,59.961025315987555,
sounds/droite.ogg,0.7,,0,0,0,0,0,17,17,34,,,,,95.80776326997439,95.12306069995975,,,,001,2021_May_03_1335,list_pa,2021.1.4,59.961025315987555,
sounds/gauche.ogg,0.7,,0,0,0,0,0,18,18,23,,,,,97.30811336996267,96.62250960001256,,,,001,2021_May_03_1335,list_pa,2021.1.4,59.961025315987555,
sounds/gauche.ogg,0.7,,0,0,0,0,0,19,19,11,,,,,98.80838996997336,98.12362009997014,,,,001,2021_May_03_1335,list_pa,2021.1.4,59.961025315987555,
sounds/gauche.ogg,0.7,,0,0,0,0,0,20,20,2,,,,,100.30843156999909,None,,,,001,2021_May_03_1335,list_pa,2021.1.4,59.961025315987555,
sounds/gauche.ogg,0.7,,0,0,0,0,0,21,21,16,,,,,101.80891126998468,101.12429239996709,,,,001,2021_May_03_1335,list_pa,2021.1.4,59.961025315987555,
sounds/droite.ogg,0.7,,0,0,0,0,0,22,22,45,,,,,103.30931726999115,102.62452399998438,,,,001,2021_May_03_1335,list_pa,2021.1.4,59.961025315987555,
sounds/gauche.ogg,0.7,,0,0,0,0,0,23,23,8,,,,,104.809534469957,None,,,,001,2021_May_03_1335,list_pa,2021.1.4,59.961025315987555,
sounds/droite.ogg,0.7,,0,0,0,0,0,24,24,36,,,,,106.31074797000038,105.62342839996563,,,,001,2021_May_03_1335,list_pa,2021.1.4,59.961025315987555,
sounds/gauche.ogg,0.7,,0,0,0,0,0,25,25,9,,,,,107.80976106999442,107.12493099999847,,,,001,2021_May_03_1335,list_pa,2021.1.4,59.961025315987555,
sounds/gauche.ogg,0.7,,0,0,0,0,0,26,26,10,,,,,109.31090716999024,108.62472839996917,,,,001,2021_May_03_1335,list_pa,2021.1.4,59.961025315987555,
sounds/gauche.ogg,0.7,,0,0,0,0,0,27,27,20,,,,,110.8270044699777,110.12444169999799,,,,001,2021_May_03_1335,list_pa,2021.1.4,59.961025315987555,
sounds/gauche.ogg,0.7,,0,0,0,0,0,28,28,24,,,,,112.32752696999815,111.64203719998477,,,,001,2021_May_03_1335,list_pa,2021.1.4,59.961025315987555,
sounds/droite.ogg,0.7,,0,0,0,0,0,29,29,43,,,,,113.82799407000421,113.14279000001261,,,,001,2021_May_03_1335,list_pa,2021.1.4,59.961025315987555,
sounds/droite.ogg,0.7,,0,0,0,0,0,30,30,44,,,,,115.32840896996204,None,,,,001,2021_May_03_1335,list_pa,2021.1.4,59.961025315987555,
sounds/droite.ogg,0.7,,0,0,0,0,0,31,31,35,,,,,116.82811806995888,116.14415229996666,,,,001,2021_May_03_1335,list_pa,2021.1.4,59.961025315987555,
sounds/gauche.ogg,0.7,,0,0,0,0,0,32,32,15,,,,,118.32857226998313,117.64438569999766,,,,001,2021_May_03_1335,list_pa,2021.1.4,59.961025315987555,
sounds/droite.ogg,0.7,,0,0,0,0,0,33,33,31,,,,,119.82917887000367,119.14389119995758,,,,001,2021_May_03_1335,list_pa,2021.1.4,59.961025315987555,
sounds/droite.ogg,0.7,,0,0,0,0,0,34,34,26,,,,,121.32971076997929,None,,,,001,2021_May_03_1335,list_pa,2021.1.4,59.961025315987555,
sounds/droite.ogg,0.7,,0,0,0,0,0,35,35,40,,,,,122.82985706998734,122.14469509996707,,,,001,2021_May_03_1335,list_pa,2021.1.4,59.961025315987555,
sounds/gauche.ogg,0.7,,0,0,0,0,0,36,36,1,,,,,124.33053536997177,123.64501819998259,,,,001,2021_May_03_1335,list_pa,2021.1.4,59.961025315987555,
sounds/gauche.ogg,0.7,,0,0,0,0,0,37,37,18,,,,,125.83110686995788,125.14536419999786,,,,001,2021_May_03_1335,list_pa,2021.1.4,59.961025315987555,
sounds/droite.ogg,0.7,,0,0,0,0,0,38,38,29,,,,,127.33067446998321,126.64543749997392,,,,001,2021_May_03_1335,list_pa,2021.1.4,59.961025315987555,
sounds/droite.ogg,0.7,,0,0,0,0,0,39,39,39,,,,,128.8309613699559,128.1457583999727,,,,001,2021_May_03_1335,list_pa,2021.1.4,59.961025315987555,
sounds/droite.ogg,0.7,,0,0,0,0,0,40,40,47,,,,,130.33120616995728,129.6459002000047,,,,001,2021_May_03_1335,list_pa,2021.1.4,59.961025315987555,
sounds/gauche.ogg,0.7,,0,0,0,0,0,41,41,19,,,,,131.83136986998142,131.1462818,,,,001,2021_May_03_1335,list_pa,2021.1.4,59.961025315987555,
sounds/droite.ogg,0.7,,0,0,0,0,0,42,42,46,,,,,133.33182546995812,132.64658409997355,,,,001,2021_May_03_1335,list_pa,2021.1.4,59.961025315987555,
sounds/gauche.ogg,0.7,,0,0,0,0,0,43,43,17,,,,,134.8320984699996,134.1467606999795,,,,001,2021_May_03_1335,list_pa,2021.1.4,59.961025315987555,
sounds/droite.ogg,0.7,,0,0,0,0,0,44,44,38,,,,,136.33232676999177,135.6475091999746,,,,001,2021_May_03_1335,list_pa,2021.1.4,59.961025315987555,
sounds/droite.ogg,0.7,,0,0,0,0,0,45,45,42,,,,,137.83287556997965,None,,,,001,2021_May_03_1335,list_pa,2021.1.4,59.961025315987555,
sounds/droite.ogg,0.7,,0,0,0,0,0,46,46,41,,,,,139.33300696999066,138.64782139996532,,,,001,2021_May_03_1335,list_pa,2021.1.4,59.961025315987555,
sounds/droite.ogg,0.7,,0,0,0,0,0,47,47,32,,,,,140.83393176998942,140.14909449999686,,,,001,2021_May_03_1335,list_pa,2021.1.4,59.961025315987555,
sounds/gauche.ogg,0.7,,0,0,0,0,0,48,48,0,,,,,142.3332270699786,141.6489471999812,,,,001,2021_May_03_1335,list_pa,2021.1.4,59.961025315987555,
sounds/gauche.ogg,0.7,,0,0,0,0,0,49,49,21,,,,,143.83376836996757,143.14872759999707,,,,001,2021_May_03_1335,list_pa,2021.1.4,59.961025315987555,
,,30,0,0,0,0,,,,,0,0,0,0,,,144.9082064999966,None,,001,2021_May_03_1335,list_pa,2021.1.4,59.961025315987555,
,,29,0,0,0,0,,,,,0,1,1,1,,,145.6657530000084,None,,001,2021_May_03_1335,list_pa,2021.1.4,59.961025315987555,
,,28,0,0,0,0,,,,,0,2,2,2,,,146.66619530000025,None,,001,2021_May_03_1335,list_pa,2021.1.4,59.961025315987555,
,,27,0,0,0,0,,,,,0,3,3,3,,,147.66614210000262,None,,001,2021_May_03_1335,list_pa,2021.1.4,59.961025315987555,
,,26,0,0,0,0,,,,,0,4,4,4,,,148.66592959995614,None,,001,2021_May_03_1335,list_pa,2021.1.4,59.961025315987555,
,,25,0,0,0,0,,,,,0,5,5,5,,,149.66717119998066,None,,001,2021_May_03_1335,list_pa,2021.1.4,59.961025315987555,
,,24,0,0,0,0,,,,,0,6,6,6,,,150.66714939998928,None,,001,2021_May_03_1335,list_pa,2021.1.4,59.961025315987555,
,,23,0,0,0,0,,,,,0,7,7,7,,,151.66709599999012,None,,001,2021_May_03_1335,list_pa,2021.1.4,59.961025315987555,
,,22,0,0,0,0,,,,,0,8,8,8,,,152.66757579997648,None,,001,2021_May_03_1335,list_pa,2021.1.4,59.961025315987555,
,,21,0,0,0,0,,,,,0,9,9,9,,,153.66800249996595,None,,001,2021_May_03_1335,list_pa,2021.1.4,59.961025315987555,
,,20,0,0,0,0,,,,,0,10,10,10,,,154.667953199998,None,,001,2021_May_03_1335,list_pa,2021.1.4,59.961025315987555,
,,19,0,0,0,0,,,,,0,11,11,11,,,155.6680949999718,None,,001,2021_May_03_1335,list_pa,2021.1.4,59.961025315987555,
,,18,0,0,0,0,,,,,0,12,12,12,,,156.6681532000075,None,,001,2021_May_03_1335,list_pa,2021.1.4,59.961025315987555,
,,17,0,0,0,0,,,,,0,13,13,13,,,157.66865629999666,None,,001,2021_May_03_1335,list_pa,2021.1.4,59.961025315987555,
,,16,0,0,0,0,,,,,0,14,14,14,,,158.66875979996985,None,,001,2021_May_03_1335,list_pa,2021.1.4,59.961025315987555,
,,15,0,0,0,0,,,,,0,15,15,15,,,159.6522629999672,None,,001,2021_May_03_1335,list_pa,2021.1.4,59.961025315987555,
,,14,0,0,0,0,,,,,0,16,16,16,,,160.6529872000101,None,,001,2021_May_03_1335,list_pa,2021.1.4,59.961025315987555,
,,13,0,0,0,0,,,,,0,17,17,17,,,161.6528738999623,None,,001,2021_May_03_1335,list_pa,2021.1.4,59.961025315987555,
,,12,0,0,0,0,,,,,0,18,18,18,,,162.6531677999883,None,,001,2021_May_03_1335,list_pa,2021.1.4,59.961025315987555,
,,11,0,0,0,0,,,,,0,19,19,19,,,163.65403079998214,None,,001,2021_May_03_1335,list_pa,2021.1.4,59.961025315987555,
,,10,0,0,0,0,,,,,0,20,20,20,,,164.65360069996677,None,,001,2021_May_03_1335,list_pa,2021.1.4,59.961025315987555,
,,9,0,0,0,0,,,,,0,21,21,21,,,165.65426159999333,None,,001,2021_May_03_1335,list_pa,2021.1.4,59.961025315987555,
,,8,0,0,0,0,,,,,0,22,22,22,,,166.65439169999445,None,,001,2021_May_03_1335,list_pa,2021.1.4,59.961025315987555,
,,7,0,0,0,0,,,,,0,23,23,23,,,167.6542552000028,None,,001,2021_May_03_1335,list_pa,2021.1.4,59.961025315987555,
,,6,0,0,0,0,,,,,0,24,24,24,,,168.65441660000943,None,,001,2021_May_03_1335,list_pa,2021.1.4,59.961025315987555,
,,5,0,0,0,0,,,,,0,25,25,25,,,169.65436769998632,None,,001,2021_May_03_1335,list_pa,2021.1.4,59.961025315987555,
,,4,0,0,0,0,,,,,0,26,26,26,,,170.65461359999608,None,,001,2021_May_03_1335,list_pa,2021.1.4,59.961025315987555,
,,3,0,0,0,0,,,,,0,27,27,27,,,171.6548890999984,None,,001,2021_May_03_1335,list_pa,2021.1.4,59.961025315987555,
,,2,0,0,0,0,,,,,0,28,28,28,,,172.65472539997427,None,,001,2021_May_03_1335,list_pa,2021.1.4,59.961025315987555,
,,1,0,0,0,0,,,,,0,29,29,29,,,173.65545329998713,None,,001,2021_May_03_1335,list_pa,2021.1.4,59.961025315987555,
,,0,0,0,0,0,,,,,0,30,30,30,,,174.6552517999662,None,,001,2021_May_03_1335,list_pa,2021.1.4,59.961025315987555,
,,,0,0,0,0,,,,,,,,,,,,,,001,2021_May_03_1335,list_pa,2021.1.4,59.961025315987555,
sounds/droite.ogg,0.7,,1,0,1,0,0,0,0,27,,,,,176.37335426999488,None,,,,001,2021_May_03_1335,list_pa,2021.1.4,59.961025315987555,
sounds/gauche.ogg,0.7,,1,0,1,0,0,1,1,6,,,,,177.87380096996202,177.18912880000426,,,,001,2021_May_03_1335,list_pa,2021.1.4,59.961025315987555,
sounds/droite.ogg,0.7,,1,0,1,0,0,2,2,36,,,,,179.37418276995885,178.68939829996089,,,,001,2021_May_03_1335,list_pa,2021.1.4,59.961025315987555,
sounds/gauche.ogg,0.7,,1,0,1,0,0,3,3,11,,,,,180.87445476999272,180.18957399995998,,,,001,2021_May_03_1335,list_pa,2021.1.4,59.961025315987555,
sounds/droite.ogg,0.7,,1,0,1,0,0,4,4,40,,,,,182.37504226998425,181.69011169997975,,,,001,2021_May_03_1335,list_pa,2021.1.4,59.961025315987555,
sounds/gauche.ogg,0.7,,1,0,1,0,0,5,5,16,,,,,183.87549006995977,183.1907108000014,,,,001,2021_May_03_1335,list_pa,2021.1.4,59.961025315987555,
sounds/droite.ogg,0.7,,1,0,1,0,0,6,6,26,,,,,185.37561097000724,184.68992380000418,,,,001,2021_May_03_1335,list_pa,2021.1.4,59.961025315987555,
sounds/gauche.ogg,0.7,,1,0,1,0,0,7,7,9,,,,,186.8763129699975,186.19102289999137,,,,001,2021_May_03_1335,list_pa,2021.1.4,59.961025315987555,
sounds/droite.ogg,0.7,,1,0,1,0,0,8,8,25,,,,,188.3759662699769,187.6911461999989,,,,001,2021_May_03_1335,list_pa,2021.1.4,59.961025315987555,
sounds/droite.ogg,0.7,,1,0,1,0,0,9,9,38,,,,,189.87657926998799,189.1917779999785,,,,001,2021_May_03_1335,list_pa,2021.1.4,59.961025315987555,
sounds/gauche.ogg,0.7,,1,0,1,0,0,10,10,8,,,,,191.37626606998964,190.69186660001287,,,,001,2021_May_03_1335,list_pa,2021.1.4,59.961025315987555,
sounds/gauche.ogg,0.7,,1,0,1,0,0,11,11,19,,,,,192.87702547000953,192.19282519997796,,,,001,2021_May_03_1335,list_pa,2021.1.4,59.961025315987555,
sounds/droite.ogg,0.7,,1,0,1,0,0,12,12,33,,,,,194.37771776998414,None,,,,001,2021_May_03_1335,list_pa,2021.1.4,59.961025315987555,
sounds/gauche.ogg,0.7,,1,0,1,0,0,13,13,20,,,,,195.87777776997535,195.19189349998487,,,,001,2021_May_03_1335,list_pa,2021.1.4,59.961025315987555,
sounds/droite.ogg,0.7,,1,0,1,0,0,14,14,35,,,,,197.37824396997456,196.69433819997357,,,,001,2021_May_03_1335,list_pa,2021.1.4,59.961025315987555,
sounds/gauche.ogg,0.7,,1,0,1,0,0,15,15,7,,,,,198.8785755699966,None,,,,001,2021_May_03_1335,list_pa,2021.1.4,59.961025315987555,
sounds/gauche.ogg,0.7,,1,0,1,0,0,16,16,18,,,,,200.3784544700058,199.6942366999574,,,,001,2021_May_03_1335,list_pa,2021.1.4,59.961025315987555,
sounds/droite.ogg,0.7,,1,0,1,0,0,17,17,37,,,,,201.8791395699838,201.19452379998984,,,,001,2021_May_03_1335,list_pa,2021.1.4,59.961025315987555,
sounds/gauche.ogg,0.7,,1,0,1,0,0,18,18,15,,,,,203.3797338699689,202.69417859998066,,,,001,2021_May_03_1335,list_pa,2021.1.4,59.961025315987555,
sounds/droite.ogg,0.7,,1,0,1,0,0,19,19,43,,,,,204.8796960699721,204.19462749996455,,,,001,2021_May_03_1335,list_pa,2021.1.4,59.961025315987555,
sounds/gauche.ogg,0.7,,1,0,1,0,0,20,20,2,,,,,206.37971196997677,205.69504139997298,,,,001,2021_May_03_1335,list_pa,2021.1.4,59.961025315987555,
sounds/gauche.ogg,0.7,,1,0,1,0,0,21,21,5,,,,,207.88121786997652,207.1950423999806,,,,001,2021_May_03_1335,list_pa,2021.1.4,59.961025315987555,
sounds/gauche.ogg,0.7,,1,0,1,0,0,22,22,12,,,,,209.38136586999752,208.69539649999933,,,,001,2021_May_03_1335,list_pa,2021.1.4,59.961025315987555,
sounds/droite.ogg,0.7,,1,0,1,0,0,23,23,45,,,,,210.88098936998284,210.1956046000123,,,,001,2021_May_03_1335,list_pa,2021.1.4,59.961025315987555,
sounds/droite.ogg,0.7,,1,0,1,0,0,24,24,48,,,,,212.38123416998422,None,,,,001,2021_May_03_1335,list_pa,2021.1.4,59.961025315987555,
sounds/droite.ogg,0.7,,1,0,1,0,0,25,25,49,,,,,213.8819221699843,213.19611109996913,,,,001,2021_May_03_1335,list_pa,2021.1.4,59.961025315987555,
sounds/gauche.ogg,0.7,,1,0,1,0,0,26,26,14,,,,,215.38189646996324,214.69671549997292,,,,001,2021_May_03_1335,list_pa,2021.1.4,59.961025315987555,
sounds/gauche.ogg,0.7,,1,0,1,0,0,27,27,24,,,,,216.8821312700049,None,,,,001,2021_May_03_1335,list_pa,2021.1.4,59.961025315987555,
sounds/gauche.ogg,0.7,,1,0,1,0,0,28,28,3,,,,,218.38219106999458,217.6966878999956,,,,001,2021_May_03_1335,list_pa,2021.1.4,59.961025315987555,
sounds/droite.ogg,0.7,,1,0,1,0,0,29,29,31,,,,,219.88284026999025,219.1976971999975,,,,001,2021_May_03_1335,list_pa,2021.1.4,59.961025315987555,
sounds/gauche.ogg,0.7,,1,0,1,0,0,30,30,4,,,,,221.38287646997486,220.69786600000225,,,,001,2021_May_03_1335,list_pa,2021.1.4,59.961025315987555,
sounds/gauche.ogg,0.7,,1,0,1,0,0,31,31,10,,,,,222.8833032699651,222.19825969997328,,,,001,2021_May_03_1335,list_pa,2021.1.4,59.961025315987555,
sounds/droite.ogg,0.7,,1,0,1,0,0,32,32,29,,,,,224.39799026998224,None,,,,001,2021_May_03_1335,list_pa,2021.1.4,59.961025315987555,
sounds/droite.ogg,0.7,,1,0,1,0,0,33,33,30,,,,,225.90079726999392,225.19759070000146,,,,001,2021_May_03_1335,list_pa,2021.1.4,59.961025315987555,
sounds/gauche.ogg,0.7,,1,0,1,0,0,34,34,1,,,,,227.40130706997587,226.71496839995962,,,,001,2021_May_03_1335,list_pa,2021.1.4,59.961025315987555,
sounds/droite.ogg,0.7,,1,0,1,0,0,35,35,28,,,,,228.90130246999905,228.21624410001095,,,,001,2021_May_03_1335,list_pa,2021.1.4,59.961025315987555,
sounds/droite.ogg,0.7,,1,0,1,0,0,36,36,42,,,,,230.40162026997422,229.71646029996919,,,,001,2021_May_03_1335,list_pa,2021.1.4,59.961025315987555,
sounds/droite.ogg,0.7,,1,0,1,0,0,37,37,39,,,,,231.9020541699603,None,,,,001,2021_May_03_1335,list_pa,2021.1.4,59.961025315987555,
sounds/gauche.ogg,0.7,,1,0,1,0,0,38,38,0,,,,,233.40247706997906,232.71733919996768,,,,001,2021_May_03_1335,list_pa,2021.1.4,59.961025315987555,
sounds/droite.ogg,0.7,,1,0,1,0,0,39,39,34,,,,,234.90283386996015,234.21704749995843,,,,001,2021_May_03_1335,list_pa,2021.1.4,59.961025315987555,
sounds/gauche.ogg,0.7,,1,0,1,0,0,40,40,23,,,,,236.40278756995684,235.71798769995803,,,,001,2021_May_03_1335,list_pa,2021.1.4,59.961025315987555,
sounds/gauche.ogg,0.7,,1,0,1,0,0,41,41,22,,,,,237.9027478700038,237.22048199997516,,,,001,2021_May_03_1335,list_pa,2021.1.4,59.961025315987555,
sounds/gauche.ogg,0.7,,1,0,1,0,0,42,42,17,,,,,239.4030414699693,238.71838589996332,,,,001,2021_May_03_1335,list_pa,2021.1.4,59.961025315987555,
sounds/droite.ogg,0.7,,1,0,1,0,0,43,43,44,,,,,240.9031964699854,240.2182883999776,,,,001,2021_May_03_1335,list_pa,2021.1.4,59.961025315987555,
sounds/droite.ogg,0.7,,1,0,1,0,0,44,44,41,,,,,242.40376366999698,241.71887509996304,,,,001,2021_May_03_1335,list_pa,2021.1.4,59.961025315987555,
sounds/droite.ogg,0.7,,1,0,1,0,0,45,45,32,,,,,243.9042153700022,243.21884809999028,,,,001,2021_May_03_1335,list_pa,2021.1.4,59.961025315987555,
sounds/gauche.ogg,0.7,,1,0,1,0,0,46,46,13,,,,,245.40429666998097,244.71991809998872,,,,001,2021_May_03_1335,list_pa,2021.1.4,59.961025315987555,
sounds/droite.ogg,0.7,,1,0,1,0,0,47,47,47,,,,,246.90490856998366,246.21982850000495,,,,001,2021_May_03_1335,list_pa,2021.1.4,59.961025315987555,
sounds/gauche.ogg,0.7,,1,0,1,0,0,48,48,21,,,,,248.40561006997012,None,,,,001,2021_May_03_1335,list_pa,2021.1.4,59.961025315987555,
sounds/droite.ogg,0.7,,1,0,1,0,0,49,49,46,,,,,249.92243207000428,None,,,,001,2021_May_03_1335,list_pa,2021.1.4,59.961025315987555,
,,30,1,0,1,0,,,,,0,0,0,0,,,250.77075179998064,None,,001,2021_May_03_1335,list_pa,2021.1.4,59.961025315987555,
,,29,1,0,1,0,,,,,0,1,1,1,,,251.75426369998604,None,,001,2021_May_03_1335,list_pa,2021.1.4,59.961025315987555,
,,28,1,0,1,0,,,,,0,2,2,2,,,252.7546258000075,None,,001,2021_May_03_1335,list_pa,2021.1.4,59.961025315987555,
,,27,1,0,1,0,,,,,0,3,3,3,,,253.75491979997605,None,,001,2021_May_03_1335,list_pa,2021.1.4,59.961025315987555,
,,26,1,0,1,0,,,,,0,4,4,4,,,254.75477599998703,None,,001,2021_May_03_1335,list_pa,2021.1.4,59.961025315987555,
,,25,1,0,1,0,,,,,0,5,5,5,,,255.75506279995898,None,,001,2021_May_03_1335,list_pa,2021.1.4,59.961025315987555,
,,24,1,0,1,0,,,,,0,6,6,6,,,256.75504839996574,None,,001,2021_May_03_1335,list_pa,2021.1.4,59.961025315987555,
,,23,1,0,1,0,,,,,0,7,7,7,,,257.75513969996246,None,,001,2021_May_03_1335,list_pa,2021.1.4,59.961025315987555,
,,22,1,0,1,0,,,,,0,8,8,8,,,258.7558464999893,None,,001,2021_May_03_1335,list_pa,2021.1.4,59.961025315987555,
,,21,1,0,1,0,,,,,0,9,9,9,,,259.75594800000545,None,,001,2021_May_03_1335,list_pa,2021.1.4,59.961025315987555,
,,20,1,0,1,0,,,,,0,10,10,10,,,260.7558790000039,None,,001,2021_May_03_1335,list_pa,2021.1.4,59.961025315987555,
,,19,1,0,1,0,,,,,0,11,11,11,,,261.7562556999619,None,,001,2021_May_03_1335,list_pa,2021.1.4,59.961025315987555,
,,18,1,0,1,0,,,,,0,12,12,12,,,262.75610920001054,None,,001,2021_May_03_1335,list_pa,2021.1.4,59.961025315987555,
,,17,1,0,1,0,,,,,0,13,13,13,,,263.75653710000915,None,,001,2021_May_03_1335,list_pa,2021.1.4,59.961025315987555,
,,16,1,0,1,0,,,,,0,14,14,14,,,264.75664320000215,None,,001,2021_May_03_1335,list_pa,2021.1.4,59.961025315987555,
,,15,1,0,1,0,,,,,0,15,15,15,,,265.75681309995707,None,,001,2021_May_03_1335,list_pa,2021.1.4,59.961025315987555,
,,14,1,0,1,0,,,,,0,16,16,16,,,266.75708349997876,None,,001,2021_May_03_1335,list_pa,2021.1.4,59.961025315987555,
,,13,1,0,1,0,,,,,0,17,17,17,,,267.7574719999684,None,,001,2021_May_03_1335,list_pa,2021.1.4,59.961025315987555,
,,12,1,0,1,0,,,,,0,18,18,18,,,268.7576931999647,None,,001,2021_May_03_1335,list_pa,2021.1.4,59.961025315987555,
,,11,1,0,1,0,,,,,0,19,19,19,,,269.75833629997214,None,,001,2021_May_03_1335,list_pa,2021.1.4,59.961025315987555,
,,10,1,0,1,0,,,,,0,20,20,20,,,270.7416713999701,None,,001,2021_May_03_1335,list_pa,2021.1.4,59.961025315987555,
,,9,1,0,1,0,,,,,0,21,21,21,,,271.74187329999404,None,,001,2021_May_03_1335,list_pa,2021.1.4,59.961025315987555,
,,8,1,0,1,0,,,,,0,22,22,22,,,272.74202800000785,None,,001,2021_May_03_1335,list_pa,2021.1.4,59.961025315987555,
,,7,1,0,1,0,,,,,0,23,23,23,,,273.742524900008,None,,001,2021_May_03_1335,list_pa,2021.1.4,59.961025315987555,
,,6,1,0,1,0,,,,,0,24,24,24,,,274.7423484000028,None,,001,2021_May_03_1335,list_pa,2021.1.4,59.961025315987555,
,,5,1,0,1,0,,,,,0,25,25,25,,,275.74295889999485,None,,001,2021_May_03_1335,list_pa,2021.1.4,59.961025315987555,
,,4,1,0,1,0,,,,,0,26,26,26,,,276.74298039998394,None,,001,2021_May_03_1335,list_pa,2021.1.4,59.961025315987555,
,,3,1,0,1,0,,,,,0,27,27,27,,,277.74303010001313,None,,001,2021_May_03_1335,list_pa,2021.1.4,59.961025315987555,
,,2,1,0,1,0,,,,,0,28,28,28,,,278.74311569996644,None,,001,2021_May_03_1335,list_pa,2021.1.4,59.961025315987555,
,,1,1,0,1,0,,,,,0,29,29,29,,,279.7438578999718,None,,001,2021_May_03_1335,list_pa,2021.1.4,59.961025315987555,
,,0,1,0,1,0,,,,,0,30,30,30,,,280.74391259998083,None,,001,2021_May_03_1335,list_pa,2021.1.4,59.961025315987555,
,,,1,0,1,0,,,,,,,,,,,,,,001,2021_May_03_1335,list_pa,2021.1.4,59.961025315987555,
sounds/gauche.ogg,0.7,,2,0,2,0,0,0,0,21,,,,,282.46198666996787,None,,,,001,2021_May_03_1335,list_pa,2021.1.4,59.961025315987555,
sounds/droite.ogg,0.7,,2,0,2,0,0,1,1,38,,,,,283.962656470004,283.2771824999945,,,,001,2021_May_03_1335,list_pa,2021.1.4,59.961025315987555,
sounds/droite.ogg,0.7,,2,0,2,0,0,2,2,43,,,,,285.46302266999845,284.7768710000091,,,,001,2021_May_03_1335,list_pa,2021.1.4,59.961025315987555,
sounds/droite.ogg,0.7,,2,0,2,0,0,3,3,34,,,,,286.96269417,None,,,,001,2021_May_03_1335,list_pa,2021.1.4,59.961025315987555,
sounds/gauche.ogg,0.7,,2,0,2,0,0,4,4,15,,,,,288.4794511700049,None,,,,001,2021_May_03_1335,list_pa,2021.1.4,59.961025315987555,
sounds/droite.ogg,0.7,,2,0,2,0,0,5,5,46,,,,,289.99681237001204,289.31151899998076,,,,001,2021_May_03_1335,list_pa,2021.1.4,59.961025315987555,
sounds/droite.ogg,0.7,,2,0,2,0,0,6,6,33,,,,,291.4964505699929,290.812187500007,,,,001,2021_May_03_1335,list_pa,2021.1.4,59.961025315987555,
sounds/droite.ogg,0.7,,2,0,2,0,0,7,7,30,,,,,292.9971252700081,292.3122738999664,,,,001,2021_May_03_1335,list_pa,2021.1.4,59.961025315987555,
sounds/gauche.ogg,0.7,,2,0,2,0,0,8,8,4,,,,,294.4979979699594,293.812818699982,,,,001,2021_May_03_1335,list_pa,2021.1.4,59.961025315987555,
sounds/droite.ogg,0.7,,2,0,2,0,0,9,9,47,,,,,295.9978677699575,295.3132430000114,,,,001,2021_May_03_1335,list_pa,2021.1.4,59.961025315987555,
sounds/droite.ogg,0.7,,2,0,2,0,0,10,10,37,,,,,297.49806617001303,296.81399890000466,,,,001,2021_May_03_1335,list_pa,2021.1.4,59.961025315987555,
sounds/gauche.ogg,0.7,,2,0,2,0,0,11,11,7,,,,,298.99897166998124,None,,,,001,2021_May_03_1335,list_pa,2021.1.4,59.961025315987555,
sounds/droite.ogg,0.7,,2,0,2,0,0,12,12,35,,,,,300.49968677001306,299.8140341999824,,,,001,2021_May_03_1335,list_pa,2021.1.4,59.961025315987555,
sounds/droite.ogg,0.7,,2,0,2,0,0,13,13,41,,,,,301.9996969699743,301.3143247999833,,,,001,2021_May_03_1335,list_pa,2021.1.4,59.961025315987555,
sounds/droite.ogg,0.7,,2,0,2,0,0,14,14,49,,,,,303.49854346998035,302.81475650001084,,,,001,2021_May_03_1335,list_pa,2021.1.4,59.961025315987555,
sounds/gauche.ogg,0.7,,2,0,2,0,0,15,15,2,,,,,305.0004855699837,None,,,,001,2021_May_03_1335,list_pa,2021.1.4,59.961025315987555,
sounds/gauche.ogg,0.7,,2,0,2,0,0,16,16,12,,,,,306.50042057001264,305.81416690000333,,,,001,2021_May_03_1335,list_pa,2021.1.4,59.961025315987555,
sounds/droite.ogg,0.7,,2,0,2,0,0,17,17,48,,,,,308.0011055699899,307.31529639998917,,,,001,2021_May_03_1335,list_pa,2021.1.4,59.961025315987555,
sounds/gauche.ogg,0.7,,2,0,2,0,0,18,18,16,,,,,309.50107116996077,308.81550699996296,,,,001,2021_May_03_1335,list_pa,2021.1.4,59.961025315987555,
sounds/gauche.ogg,0.7,,2,0,2,0,0,19,19,18,,,,,311.0012249699677,310.3154601000133,,,,001,2021_May_03_1335,list_pa,2021.1.4,59.961025315987555,
sounds/droite.ogg,0.7,,2,0,2,0,0,20,20,40,,,,,312.5013209700002,311.8163382000057,,,,001,2021_May_03_1335,list_pa,2021.1.4,59.961025315987555,
sounds/gauche.ogg,0.7,,2,0,2,0,0,21,21,11,,,,,314.0017615699791,313.3159233999904,,,,001,2021_May_03_1335,list_pa,2021.1.4,59.961025315987555,
sounds/gauche.ogg,0.7,,2,0,2,0,0,22,22,5,,,,,315.50236947000957,314.81670209998265,,,,001,2021_May_03_1335,list_pa,2021.1.4,59.961025315987555,
sounds/droite.ogg,0.7,,2,0,2,0,0,23,23,28,,,,,317.0025781699689,316.31622410001,,,,001,2021_May_03_1335,list_pa,2021.1.4,59.961025315987555,
sounds/gauche.ogg,0.7,,2,0,2,0,0,24,24,13,,,,,318.5025913700112,317.8176441999967,,,,001,2021_May_03_1335,list_pa,2021.1.4,59.961025315987555,
sounds/gauche.ogg,0.7,,2,0,2,0,0,25,25,17,,,,,320.0039859699784,319.3179398999782,,,,001,2021_May_03_1335,list_pa,2021.1.4,59.961025315987555,
sounds/gauche.ogg,0.7,,2,0,2,0,0,26,26,10,,,,,321.50316066998056,None,,,,001,2021_May_03_1335,list_pa,2021.1.4,59.961025315987555,
sounds/droite.ogg,0.7,,2,0,2,0,0,27,27,44,,,,,323.0032689699903,322.3182887999574,,,,001,2021_May_03_1335,list_pa,2021.1.4,59.961025315987555,
sounds/droite.ogg,0.7,,2,0,2,0,0,28,28,25,,,,,324.5036215699976,323.81882799998857,,,,001,2021_May_03_1335,list_pa,2021.1.4,59.961025315987555,
sounds/gauche.ogg,0.7,,2,0,2,0,0,29,29,24,,,,,326.00384296999545,325.3192796999938,,,,001,2021_May_03_1335,list_pa,2021.1.4,59.961025315987555,
sounds/gauche.ogg,0.7,,2,0,2,0,0,30,30,23,,,,,327.5042446699692,326.8196824999759,,,,001,2021_May_03_1335,list_pa,2021.1.4,59.961025315987555,
sounds/droite.ogg,0.7,,2,0,2,0,0,31,31,45,,,,,329.0045385699952,328.3201429999899,,,,001,2021_May_03_1335,list_pa,2021.1.4,59.961025315987555,
sounds/droite.ogg,0.7,,2,0,2,0,0,32,32,36,,,,,330.50491176998474,329.8200198999839,,,,001,2021_May_03_1335,list_pa,2021.1.4,59.961025315987555,
sounds/gauche.ogg,0.7,,2,0,2,0,0,33,33,1,,,,,332.0055452699773,331.32032249995973,,,,001,2021_May_03_1335,list_pa,2021.1.4,59.961025315987555,
sounds/droite.ogg,0.7,,2,0,2,0,0,34,34,39,,,,,333.5058994699968,332.8198379999958,,,,001,2021_May_03_1335,list_pa,2021.1.4,59.961025315987555,
sounds/droite.ogg,0.7,,2,0,2,0,0,35,35,42,,,,,335.0060156700085,334.3210521999863,,,,001,2021_May_03_1335,list_pa,2021.1.4,59.961025315987555,
sounds/droite.ogg,0.7,,2,0,2,0,0,36,36,32,,,,,336.5064225699636,335.82159409997985,,,,001,2021_May_03_1335,list_pa,2021.1.4,59.961025315987555,
sounds/gauche.ogg,0.7,,2,0,2,0,0,37,37,20,,,,,338.00681007000384,None,,,,001,2021_May_03_1335,list_pa,2021.1.4,59.961025315987555,
sounds/gauche.ogg,0.7,,2,0,2,0,0,38,38,22,,,,,339.5073875699774,338.8215621999698,,,,001,2021_May_03_1335,list_pa,2021.1.4,59.961025315987555,
sounds/gauche.ogg,0.7,,2,0,2,0,0,39,39,6,,,,,341.0073333699722,340.3222516999813,,,,001,2021_May_03_1335,list_pa,2021.1.4,59.961025315987555,
sounds/gauche.ogg,0.7,,2,0,2,0,0,40,40,3,,,,,342.50767467000986,341.8213887999882,,,,001,2021_May_03_1335,list_pa,2021.1.4,59.961025315987555,
sounds/gauche.ogg,0.7,,2,0,2,0,0,41,41,8,,,,,344.00733596999197,343.3222758999909,,,,001,2021_May_03_1335,list_pa,2021.1.4,59.961025315987555,
sounds/gauche.ogg,0.7,,2,0,2,0,0,42,42,19,,,,,345.5080444699735,344.82316579995677,,,,001,2021_May_03_1335,list_pa,2021.1.4,59.961025315987555,
sounds/gauche.ogg,0.7,,2,0,2,0,0,43,43,14,,,,,347.0085585699882,346.32349189999513,,,,001,2021_May_03_1335,list_pa,2021.1.4,59.961025315987555,
sounds/droite.ogg,0.7,,2,0,2,0,0,44,44,29,,,,,348.50706307000945,347.8242332999944,,,,001,2021_May_03_1335,list_pa,2021.1.4,59.961025315987555,
sounds/gauche.ogg,0.7,,2,0,2,0,0,45,45,9,,,,,350.0083518699859,349.3241627999814,,,,001,2021_May_03_1335,list_pa,2021.1.4,59.961025315987555,
sounds/droite.ogg,0.7,,2,0,2,0,0,46,46,26,,,,,351.50988676997366,350.82461449998664,,,,001,2021_May_03_1335,list_pa,2021.1.4,59.961025315987555,
sounds/droite.ogg,0.7,,2,0,2,0,0,47,47,27,,,,,353.0098455700092,352.3245561000076,,,,001,2021_May_03_1335,list_pa,2021.1.4,59.961025315987555,
sounds/gauche.ogg,0.7,,2,0,2,0,0,48,48,0,,,,,354.51023686996194,353.82501569995657,,,,001,2021_May_03_1335,list_pa,2021.1.4,59.961025315987555,
sounds/droite.ogg,0.7,,2,0,2,0,0,49,49,31,,,,,356.0111125699943,None,,,,001,2021_May_03_1335,list_pa,2021.1.4,59.961025315987555,
,,30,2,0,2,0,,,,,0,0,0,0,,,356.8579889999819,None,,001,2021_May_03_1335,list_pa,2021.1.4,59.961025315987555,
,,29,2,0,2,0,,,,,0,1,1,1,,,357.84281020000344,None,,001,2021_May_03_1335,list_pa,2021.1.4,59.961025315987555,
,,28,2,0,2,0,,,,,0,2,2,2,,,358.8250096999691,None,,001,2021_May_03_1335,list_pa,2021.1.4,59.961025315987555,
,,27,2,0,2,0,,,,,0,3,3,3,,,359.8428411000059,None,,001,2021_May_03_1335,list_pa,2021.1.4,59.961025315987555,
,,26,2,0,2,0,,,,,0,4,4,4,,,360.84382329997607,None,,001,2021_May_03_1335,list_pa,2021.1.4,59.961025315987555,
,,25,2,0,2,0,,,,,0,5,5,5,,,361.84395109995967,None,,001,2021_May_03_1335,list_pa,2021.1.4,59.961025315987555,
,,24,2,0,2,0,,,,,0,6,6,6,,,362.84402199997567,None,,001,2021_May_03_1335,list_pa,2021.1.4,59.961025315987555,
,,23,2,0,2,0,,,,,0,7,7,7,,,363.844160299981,None,,001,2021_May_03_1335,list_pa,2021.1.4,59.961025315987555,
,,22,2,0,2,0,,,,,0,8,8,8,,,364.84421269997256,None,,001,2021_May_03_1335,list_pa,2021.1.4,59.961025315987555,
,,21,2,0,2,0,,,,,0,9,9,9,,,365.843816699984,None,,001,2021_May_03_1335,list_pa,2021.1.4,59.961025315987555,
,,20,2,0,2,0,,,,,0,10,10,10,,,366.84435109997867,None,,001,2021_May_03_1335,list_pa,2021.1.4,59.961025315987555,
,,19,2,0,2,0,,,,,0,11,11,11,,,367.8445841000066,None,,001,2021_May_03_1335,list_pa,2021.1.4,59.961025315987555,
,,18,2,0,2,0,,,,,0,12,12,12,,,368.8448212000076,None,,001,2021_May_03_1335,list_pa,2021.1.4,59.961025315987555,
,,17,2,0,2,0,,,,,0,13,13,13,,,369.84481889999006,None,,001,2021_May_03_1335,list_pa,2021.1.4,59.961025315987555,
,,16,2,0,2,0,,,,,0,14,14,14,,,370.8451813000138,None,,001,2021_May_03_1335,list_pa,2021.1.4,59.961025315987555,
,,15,2,0,2,0,,,,,0,15,15,15,,,371.8453586999676,None,,001,2021_May_03_1335,list_pa,2021.1.4,59.961025315987555,
,,14,2,0,2,0,,,,,0,16,16,16,,,372.8452274999581,None,,001,2021_May_03_1335,list_pa,2021.1.4,59.961025315987555,
,,13,2,0,2,0,,,,,0,17,17,17,,,373.8453832999803,None,,001,2021_May_03_1335,list_pa,2021.1.4,59.961025315987555,
,,12,2,0,2,0,,,,,0,18,18,18,,,374.8455219999887,None,,001,2021_May_03_1335,list_pa,2021.1.4,59.961025315987555,
,,11,2,0,2,0,,,,,0,19,19,19,,,375.845972399984,None,,001,2021_May_03_1335,list_pa,2021.1.4,59.961025315987555,
,,10,2,0,2,0,,,,,0,20,20,20,,,376.8464870000025,None,,001,2021_May_03_1335,list_pa,2021.1.4,59.961025315987555,
,,9,2,0,2,0,,,,,0,21,21,21,,,377.8468012000085,None,,001,2021_May_03_1335,list_pa,2021.1.4,59.961025315987555,
,,8,2,0,2,0,,,,,0,22,22,22,,,378.8467998999986,None,,001,2021_May_03_1335,list_pa,2021.1.4,59.961025315987555,
,,7,2,0,2,0,,,,,0,23,23,23,,,379.84651770000346,None,,001,2021_May_03_1335,list_pa,2021.1.4,59.961025315987555,
,,6,2,0,2,0,,,,,0,24,24,24,,,380.8304703999893,None,,001,2021_May_03_1335,list_pa,2021.1.4,59.961025315987555,
,,5,2,0,2,0,,,,,0,25,25,25,,,381.8311374000041,None,,001,2021_May_03_1335,list_pa,2021.1.4,59.961025315987555,
,,4,2,0,2,0,,,,,0,26,26,26,,,382.83102179999696,None,,001,2021_May_03_1335,list_pa,2021.1.4,59.961025315987555,
,,3,2,0,2,0,,,,,0,27,27,27,,,383.8312664999976,None,,001,2021_May_03_1335,list_pa,2021.1.4,59.961025315987555,
,,2,2,0,2,0,,,,,0,28,28,28,,,384.8315602999646,None,,001,2021_May_03_1335,list_pa,2021.1.4,59.961025315987555,
,,1,2,0,2,0,,,,,0,29,29,29,,,385.8316419000039,None,,001,2021_May_03_1335,list_pa,2021.1.4,59.961025315987555,
,,0,2,0,2,0,,,,,0,30,30,30,,,386.8318806999596,None,,001,2021_May_03_1335,list_pa,2021.1.4,59.961025315987555,
,,,2,0,2,0,,,,,,,,,,,,,,001,2021_May_03_1335,list_pa,2021.1.4,59.961025315987555,
sounds/droite.ogg,0.7,,3,0,3,0,0,0,0,27,,,,,388.5333171699778,None,,,,001,2021_May_03_1335,list_pa,2021.1.4,59.961025315987555,
sounds/droite.ogg,0.7,,3,0,3,0,0,1,1,28,,,,,390.0334995699697,389.3488659999566,,,,001,2021_May_03_1335,list_pa,2021.1.4,59.961025315987555,
sounds/gauche.ogg,0.7,,3,0,3,0,0,2,2,3,,,,,391.53414446999085,390.84940249996725,,,,001,2021_May_03_1335,list_pa,2021.1.4,59.961025315987555,
sounds/droite.ogg,0.7,,3,0,3,0,0,3,3,45,,,,,393.03387957001104,392.34961519995704,,,,001,2021_May_03_1335,list_pa,2021.1.4,59.961025315987555,
sounds/droite.ogg,0.7,,3,0,3,0,0,4,4,30,,,,,394.53444796997354,393.8492242000066,,,,001,2021_May_03_1335,list_pa,2021.1.4,59.961025315987555,
sounds/gauche.ogg,0.7,,3,0,3,0,0,5,5,12,,,,,396.0349507699604,395.35032309999224,,,,001,2021_May_03_1335,list_pa,2021.1.4,59.961025315987555,
sounds/gauche.ogg,0.7,,3,0,3,0,0,6,6,9,,,,,397.5350382699864,None,,,,001,2021_May_03_1335,list_pa,2021.1.4,59.961025315987555,
sounds/droite.ogg,0.7,,3,0,3,0,0,7,7,48,,,,,399.0358508700039,398.3502463999903,,,,001,2021_May_03_1335,list_pa,2021.1.4,59.961025315987555,
sounds/gauche.ogg,0.7,,3,0,3,0,0,8,8,1,,,,,400.53561036997706,399.8506231000065,,,,001,2021_May_03_1335,list_pa,2021.1.4,59.961025315987555,
sounds/droite.ogg,0.7,,3,0,3,0,0,9,9,36,,,,,402.0361463699839,None,,,,001,2021_May_03_1335,list_pa,2021.1.4,59.961025315987555,
sounds/gauche.ogg,0.7,,3,0,3,0,0,10,10,5,,,,,403.5373908699723,402.8503168000025,,,,001,2021_May_03_1335,list_pa,2021.1.4,59.961025315987555,
sounds/droite.ogg,0.7,,3,0,3,0,0,11,11,47,,,,,405.03679227001265,404.3520405999734,,,,001,2021_May_03_1335,list_pa,2021.1.4,59.961025315987555,
sounds/gauche.ogg,0.7,,3,0,3,0,0,12,12,23,,,,,406.53728927001356,405.8519696999574,,,,001,2021_May_03_1335,list_pa,2021.1.4,59.961025315987555,
sounds/droite.ogg,0.7,,3,0,3,0,0,13,13,43,,,,,408.0376542699989,407.3520090999664,,,,001,2021_May_03_1335,list_pa,2021.1.4,59.961025315987555,
sounds/droite.ogg,0.7,,3,0,3,0,0,14,14,42,,,,,409.53791906997793,408.8524949999992,,,,001,2021_May_03_1335,list_pa,2021.1.4,59.961025315987555,
sounds/gauche.ogg,0.7,,3,0,3,0,0,15,15,14,,,,,411.0381908700103,410.35379309998825,,,,001,2021_May_03_1335,list_pa,2021.1.4,59.961025315987555,
sounds/droite.ogg,0.7,,3,0,3,0,0,16,16,25,,,,,412.5386585699627,411.8534435000038,,,,001,2021_May_03_1335,list_pa,2021.1.4,59.961025315987555,
sounds/gauche.ogg,0.7,,3,0,3,0,0,17,17,11,,,,,414.0388683699886,None,,,,001,2021_May_03_1335,list_pa,2021.1.4,59.961025315987555,
sounds/gauche.ogg,0.7,,3,0,3,0,0,18,18,18,,,,,415.53914537000236,414.85436150000896,,,,001,2021_May_03_1335,list_pa,2021.1.4,59.961025315987555,
sounds/droite.ogg,0.7,,3,0,3,0,0,19,19,34,,,,,417.03965797000563,416.3542630999582,,,,001,2021_May_03_1335,list_pa,2021.1.4,59.961025315987555,
sounds/gauche.ogg,0.7,,3,0,3,0,0,20,20,4,,,,,418.53963846997357,417.854763499985,,,,001,2021_May_03_1335,list_pa,2021.1.4,59.961025315987555,
sounds/gauche.ogg,0.7,,3,0,3,0,0,21,21,19,,,,,420.040716769977,None,,,,001,2021_May_03_1335,list_pa,2021.1.4,59.961025315987555,
sounds/gauche.ogg,0.7,,3,0,3,0,0,22,22,16,,,,,421.54076316998106,420.85511959996074,,,,001,2021_May_03_1335,list_pa,2021.1.4,59.961025315987555,
sounds/gauche.ogg,0.7,,3,0,3,0,0,23,23,6,,,,,423.04047726995776,422.3552788000088,,,,001,2021_May_03_1335,list_pa,2021.1.4,59.961025315987555,
sounds/droite.ogg,0.7,,3,0,3,0,0,24,24,41,,,,,424.5410370699712,423.85557909996714,,,,001,2021_May_03_1335,list_pa,2021.1.4,59.961025315987555,
sounds/gauche.ogg,0.7,,3,0,3,0,0,25,25,17,,,,,426.04106696996604,425.35583889996633,,,,001,2021_May_03_1335,list_pa,2021.1.4,59.961025315987555,
sounds/droite.ogg,0.7,,3,0,3,0,0,26,26,37,,,,,427.54194146998924,426.85617439995985,,,,001,2021_May_03_1335,list_pa,2021.1.4,59.961025315987555,
sounds/gauche.ogg,0.7,,3,0,3,0,0,27,27,7,,,,,429.04210286999586,428.35636460001115,,,,001,2021_May_03_1335,list_pa,2021.1.4,59.961025315987555,
sounds/droite.ogg,0.7,,3,0,3,0,0,28,28,40,,,,,430.54192256996174,429.85667509998893,,,,001,2021_May_03_1335,list_pa,2021.1.4,59.961025315987555,
sounds/droite.ogg,0.7,,3,0,3,0,0,29,29,46,,,,,432.04279297001193,431.35671199997887,,,,001,2021_May_03_1335,list_pa,2021.1.4,59.961025315987555,
sounds/droite.ogg,0.7,,3,0,3,0,0,30,30,29,,,,,433.5434405699954,432.8572891000076,,,,001,2021_May_03_1335,list_pa,2021.1.4,59.961025315987555,
sounds/gauche.ogg,0.7,,3,0,3,0,0,31,31,13,,,,,435.0428561699693,434.35801369999535,,,,001,2021_May_03_1335,list_pa,2021.1.4,59.961025315987555,
sounds/droite.ogg,0.7,,3,0,3,0,0,32,32,31,,,,,436.5432105699903,None,,,,001,2021_May_03_1335,list_pa,2021.1.4,59.961025315987555,
sounds/droite.ogg,0.7,,3,0,3,0,0,33,33,49,,,,,438.0429772699601,437.35815029998776,,,,001,2021_May_03_1335,list_pa,2021.1.4,59.961025315987555,
sounds/droite.ogg,0.7,,3,0,3,0,0,34,34,39,,,,,439.54382497001205,438.8589531999896,,,,001,2021_May_03_1335,list_pa,2021.1.4,59.961025315987555,
sounds/gauche.ogg,0.7,,3,0,3,0,0,35,35,21,,,,,441.0439939699601,440.35847709997324,,,,001,2021_May_03_1335,list_pa,2021.1.4,59.961025315987555,
sounds/droite.ogg,0.7,,3,0,3,0,0,36,36,26,,,,,442.5449862700072,441.8594374000095,,,,001,2021_May_03_1335,list_pa,2021.1.4,59.961025315987555,
sounds/droite.ogg,0.7,,3,0,3,0,0,37,37,33,,,,,444.0445609699702,443.3597210999578,,,,001,2021_May_03_1335,list_pa,2021.1.4,59.961025315987555,
sounds/droite.ogg,0.7,,3,0,3,0,0,38,38,44,,,,,445.544809369999,444.8600584999658,,,,001,2021_May_03_1335,list_pa,2021.1.4,59.961025315987555,
sounds/gauche.ogg,0.7,,3,0,3,0,0,39,39,15,,,,,447.04523426997474,446.3601223999867,,,,001,2021_May_03_1335,list_pa,2021.1.4,59.961025315987555,
sounds/droite.ogg,0.7,,3,0,3,0,0,40,40,32,,,,,448.5459463699837,447.859949900012,,,,001,2021_May_03_1335,list_pa,2021.1.4,59.961025315987555,
sounds/droite.ogg,0.7,,3,0,3,0,0,41,41,35,,,,,450.04610586997586,449.36066229996504,,,,001,2021_May_03_1335,list_pa,2021.1.4,59.961025315987555,
sounds/gauche.ogg,0.7,,3,0,3,0,0,42,42,24,,,,,451.5465081700124,450.86074899998493,,,,001,2021_May_03_1335,list_pa,2021.1.4,59.961025315987555,
sounds/droite.ogg,0.7,,3,0,3,0,0,43,43,38,,,,,453.04606397000606,None,,,,001,2021_May_03_1335,list_pa,2021.1.4,59.961025315987555,
sounds/gauche.ogg,0.7,,3,0,3,0,0,44,44,10,,,,,454.5446328699938,453.86197089997586,,,,001,2021_May_03_1335,list_pa,2021.1.4,59.961025315987555,
sounds/gauche.ogg,0.7,,3,0,3,0,0,45,45,22,,,,,456.04453386999666,455.34449009998934,,,,001,2021_May_03_1335,list_pa,2021.1.4,59.961025315987555,
sounds/gauche.ogg,0.7,,3,0,3,0,0,46,46,8,,,,,457.5476832699962,None,,,,001,2021_May_03_1335,list_pa,2021.1.4,59.961025315987555,
sounds/gauche.ogg,0.7,,3,0,3,0,0,47,47,2,,,,,459.0483462699805,458.3627516999841,,,,001,2021_May_03_1335,list_pa,2021.1.4,59.961025315987555,
sounds/gauche.ogg,0.7,,3,0,3,0,0,48,48,0,,,,,460.5483576700091,459.86403269995935,,,,001,2021_May_03_1335,list_pa,2021.1.4,59.961025315987555,
sounds/gauche.ogg,0.7,,3,0,3,0,0,49,49,20,,,,,462.0487444699858,461.36348759999964,,,,001,2021_May_03_1335,list_pa,2021.1.4,59.961025315987555,
,,30,3,0,3,0,,,,,0,0,0,0,,,462.87925130000804,None,,001,2021_May_03_1335,list_pa,2021.1.4,59.961025315987555,
,,29,3,0,3,0,,,,,0,1,1,1,,,463.8808018999989,None,,001,2021_May_03_1335,list_pa,2021.1.4,59.961025315987555,
,,28,3,0,3,0,,,,,0,2,2,2,,,464.8808863000013,None,,001,2021_May_03_1335,list_pa,2021.1.4,59.961025315987555,
,,27,3,0,3,0,,,,,0,3,3,3,,,465.881394099968,None,,001,2021_May_03_1335,list_pa,2021.1.4,59.961025315987555,
,,26,3,0,3,0,,,,,0,4,4,4,,,466.8812920000055,None,,001,2021_May_03_1335,list_pa,2021.1.4,59.961025315987555,
,,25,3,0,3,0,,,,,0,5,5,5,,,467.8818895999575,None,,001,2021_May_03_1335,list_pa,2021.1.4,59.961025315987555,
,,24,3,0,3,0,,,,,0,6,6,6,,,468.88192909996724,None,,001,2021_May_03_1335,list_pa,2021.1.4,59.961025315987555,
,,23,3,0,3,0,,,,,0,7,7,7,,,469.88185509998584,None,,001,2021_May_03_1335,list_pa,2021.1.4,59.961025315987555,
,,22,3,0,3,0,,,,,0,8,8,8,,,470.8820670999703,None,,001,2021_May_03_1335,list_pa,2021.1.4,59.961025315987555,
,,21,3,0,3,0,,,,,0,9,9,9,,,471.8826057999977,None,,001,2021_May_03_1335,list_pa,2021.1.4,59.961025315987555,
,,20,3,0,3,0,,,,,0,10,10,10,,,472.8826076000114,None,,001,2021_May_03_1335,list_pa,2021.1.4,59.961025315987555,
,,19,3,0,3,0,,,,,0,11,11,11,,,473.88268139999127,None,,001,2021_May_03_1335,list_pa,2021.1.4,59.961025315987555,
,,18,3,0,3,0,,,,,0,12,12,12,,,474.88348169997334,None,,001,2021_May_03_1335,list_pa,2021.1.4,59.961025315987555,
,,17,3,0,3,0,,,,,0,13,13,13,,,475.8836874999688,None,,001,2021_May_03_1335,list_pa,2021.1.4,59.961025315987555,
,,16,3,0,3,0,,,,,0,14,14,14,,,476.8837065999978,None,,001,2021_May_03_1335,list_pa,2021.1.4,59.961025315987555,
,,15,3,0,3,0,,,,,0,15,15,15,,,477.8671396999853,None,,001,2021_May_03_1335,list_pa,2021.1.4,59.961025315987555,
,,14,3,0,3,0,,,,,0,16,16,16,,,478.88428529998055,None,,001,2021_May_03_1335,list_pa,2021.1.4,59.961025315987555,
,,13,3,0,3,0,,,,,0,17,17,17,,,479.88403610000387,None,,001,2021_May_03_1335,list_pa,2021.1.4,59.961025315987555,
,,12,3,0,3,0,,,,,0,18,18,18,,,480.86733360000653,None,,001,2021_May_03_1335,list_pa,2021.1.4,59.961025315987555,
,,11,3,0,3,0,,,,,0,19,19,19,,,481.86776429996826,None,,001,2021_May_03_1335,list_pa,2021.1.4,59.961025315987555,
,,10,3,0,3,0,,,,,0,20,20,20,,,482.8688384999987,None,,001,2021_May_03_1335,list_pa,2021.1.4,59.961025315987555,
,,9,3,0,3,0,,,,,0,21,21,21,,,483.86796689999755,None,,001,2021_May_03_1335,list_pa,2021.1.4,59.961025315987555,
,,8,3,0,3,0,,,,,0,22,22,22,,,484.8680779999704,None,,001,2021_May_03_1335,list_pa,2021.1.4,59.961025315987555,
,,7,3,0,3,0,,,,,0,23,23,23,,,485.86887139995815,None,,001,2021_May_03_1335,list_pa,2021.1.4,59.961025315987555,
,,6,3,0,3,0,,,,,0,24,24,24,,,486.86867659998825,None,,001,2021_May_03_1335,list_pa,2021.1.4,59.961025315987555,
,,5,3,0,3,0,,,,,0,25,25,25,,,487.86906830000225,None,,001,2021_May_03_1335,list_pa,2021.1.4,59.961025315987555,
,,4,3,0,3,0,,,,,0,26,26,26,,,488.8690120999818,None,,001,2021_May_03_1335,list_pa,2021.1.4,59.961025315987555,
,,3,3,0,3,0,,,,,0,27,27,27,,,489.8694396999781,None,,001,2021_May_03_1335,list_pa,2021.1.4,59.961025315987555,
,,2,3,0,3,0,,,,,0,28,28,28,,,490.86945299996296,None,,001,2021_May_03_1335,list_pa,2021.1.4,59.961025315987555,
,,1,3,0,3,0,,,,,0,29,29,29,,,491.86966649995884,None,,001,2021_May_03_1335,list_pa,2021.1.4,59.961025315987555,
,,0,3,0,3,0,,,,,0,30,30,30,,,492.86985610000556,None,,001,2021_May_03_1335,list_pa,2021.1.4,59.961025315987555,
,,,3,0,3,0,,,,,,,,,,,,,,001,2021_May_03_1335,list_pa,2021.1.4,59.961025315987555,
sounds/gauche.ogg,0.7,,4,0,4,0,0,0,0,9,,,,,494.58851327000883,None,,,,001,2021_May_03_1335,list_pa,2021.1.4,59.961025315987555,
sounds/droite.ogg,0.7,,4,0,4,0,0,1,1,36,,,,,496.08885936996666,495.40416949999053,,,,001,2021_May_03_1335,list_pa,2021.1.4,59.961025315987555,
sounds/droite.ogg,0.7,,4,0,4,0,0,2,2,34,,,,,497.5890323700034,None,,,,001,2021_May_03_1335,list_pa,2021.1.4,59.961025315987555,
sounds/gauche.ogg,0.7,,4,0,4,0,0,3,3,8,,,,,499.08934557000174,None,,,,001,2021_May_03_1335,list_pa,2021.1.4,59.961025315987555,
sounds/gauche.ogg,0.7,,4,0,4,0,0,4,4,12,,,,,500.5898408699897,None,,,,001,2021_May_03_1335,list_pa,2021.1.4,59.961025315987555,
sounds/droite.ogg,0.7,,4,0,4,0,0,5,5,35,,,,,502.0902718700119,501.4046461000107,,,,001,2021_May_03_1335,list_pa,2021.1.4,59.961025315987555,
sounds/gauche.ogg,0.7,,4,0,4,0,0,6,6,2,,,,,503.5904506699764,502.9050390999764,,,,001,2021_May_03_1335,list_pa,2021.1.4,59.961025315987555,
sounds/gauche.ogg,0.7,,4,0,4,0,0,7,7,20,,,,,505.09049946999875,504.40541389997816,,,,001,2021_May_03_1335,list_pa,2021.1.4,59.961025315987555,
sounds/droite.ogg,0.7,,4,0,4,0,0,8,8,30,,,,,506.59098736998857,505.90564809995703,,,,001,2021_May_03_1335,list_pa,2021.1.4,59.961025315987555,
sounds/droite.ogg,0.7,,4,0,4,0,0,9,9,47,,,,,508.0909148699604,507.4056220999919,,,,001,2021_May_03_1335,list_pa,2021.1.4,59.961025315987555,
sounds/droite.ogg,0.7,,4,0,4,0,0,10,10,38,,,,,509.59152916998136,508.9063174999901,,,,001,2021_May_03_1335,list_pa,2021.1.4,59.961025315987555,
sounds/droite.ogg,0.7,,4,0,4,0,0,11,11,49,,,,,511.0913592699682,None,,,,001,2021_May_03_1335,list_pa,2021.1.4,59.961025315987555,
sounds/gauche.ogg,0.7,,4,0,4,0,0,12,12,24,,,,,512.5918993700063,511.9069029999664,,,,001,2021_May_03_1335,list_pa,2021.1.4,59.961025315987555,
sounds/droite.ogg,0.7,,4,0,4,0,0,13,13,42,,,,,514.0922933699796,513.4070507999859,,,,001,2021_May_03_1335,list_pa,2021.1.4,59.961025315987555,
sounds/gauche.ogg,0.7,,4,0,4,0,0,14,14,4,,,,,515.59265006996,None,,,,001,2021_May_03_1335,list_pa,2021.1.4,59.961025315987555,
sounds/gauche.ogg,0.7,,4,0,4,0,0,15,15,17,,,,,517.0927697699983,516.4077368999715,,,,001,2021_May_03_1335,list_pa,2021.1.4,59.961025315987555,
sounds/gauche.ogg,0.7,,4,0,4,0,0,16,16,16,,,,,518.5929993700004,517.9085392999696,,,,001,2021_May_03_1335,list_pa,2021.1.4,59.961025315987555,
sounds/gauche.ogg,0.7,,4,0,4,0,0,17,17,5,,,,,520.09333806996,519.4084112999844,,,,001,2021_May_03_1335,list_pa,2021.1.4,59.961025315987555,
sounds/droite.ogg,0.7,,4,0,4,0,0,18,18,39,,,,,521.593650670012,520.9088432000135,,,,001,2021_May_03_1335,list_pa,2021.1.4,59.961025315987555,
sounds/gauche.ogg,0.7,,4,0,4,0,0,19,19,3,,,,,523.0937375699752,522.4091940000071,,,,001,2021_May_03_1335,list_pa,2021.1.4,59.961025315987555,
sounds/gauche.ogg,0.7,,4,0,4,0,0,20,20,23,,,,,524.5938220699784,523.9095353999874,,,,001,2021_May_03_1335,list_pa,2021.1.4,59.961025315987555,
sounds/droite.ogg,0.7,,4,0,4,0,0,21,21,44,,,,,526.0949864699971,525.409613900003,,,,001,2021_May_03_1335,list_pa,2021.1.4,59.961025315987555,
sounds/droite.ogg,0.7,,4,0,4,0,0,22,22,40,,,,,527.5947096699849,526.9093854000093,,,,001,2021_May_03_1335,list_pa,2021.1.4,59.961025315987555,
sounds/droite.ogg,0.7,,4,0,4,0,0,23,23,46,,,,,529.0950509699644,528.4095826999983,,,,001,2021_May_03_1335,list_pa,2021.1.4,59.961025315987555,
sounds/gauche.ogg,0.7,,4,0,4,0,0,24,24,10,,,,,530.5957798699849,529.9109204999986,,,,001,2021_May_03_1335,list_pa,2021.1.4,59.961025315987555,
sounds/droite.ogg,0.7,,4,0,4,0,0,25,25,33,,,,,532.0952378699906,None,,,,001,2021_May_03_1335,list_pa,2021.1.4,59.961025315987555,
sounds/gauche.ogg,0.7,,4,0,4,0,0,26,26,11,,,,,533.5962168699946,532.9111910999636,,,,001,2021_May_03_1335,list_pa,2021.1.4,59.961025315987555,
sounds/droite.ogg,0.7,,4,0,4,0,0,27,27,26,,,,,535.0967535700067,534.4117066999897,,,,001,2021_May_03_1335,list_pa,2021.1.4,59.961025315987555,
sounds/droite.ogg,0.7,,4,0,4,0,0,28,28,41,,,,,536.5971879699966,None,,,,001,2021_May_03_1335,list_pa,2021.1.4,59.961025315987555,
sounds/gauche.ogg,0.7,,4,0,4,0,0,29,29,21,,,,,538.097078369977,537.4125049999566,,,,001,2021_May_03_1335,list_pa,2021.1.4,59.961025315987555,
sounds/gauche.ogg,0.7,,4,0,4,0,0,30,30,18,,,,,539.5976374699851,538.912793800002,,,,001,2021_May_03_1335,list_pa,2021.1.4,59.961025315987555,
sounds/gauche.ogg,0.7,,4,0,4,0,0,31,31,14,,,,,541.0977567699622,540.4126120999572,,,,001,2021_May_03_1335,list_pa,2021.1.4,59.961025315987555,
sounds/gauche.ogg,0.7,,4,0,4,0,0,32,32,15,,,,,542.5982915699599,541.9143104999675,,,,001,2021_May_03_1335,list_pa,2021.1.4,59.961025315987555,
sounds/gauche.ogg,0.7,,4,0,4,0,0,33,33,13,,,,,544.0983630699805,543.4142107999651,,,,001,2021_May_03_1335,list_pa,2021.1.4,59.961025315987555,
sounds/gauche.ogg,0.7,,4,0,4,0,0,34,34,22,,,,,545.5991508699838,544.9141710000113,,,,001,2021_May_03_1335,list_pa,2021.1.4,59.961025315987555,
sounds/droite.ogg,0.7,,4,0,4,0,0,35,35,45,,,,,547.0993660699926,546.4142751999898,,,,001,2021_May_03_1335,list_pa,2021.1.4,59.961025315987555,
sounds/gauche.ogg,0.7,,4,0,4,0,0,36,36,7,,,,,548.5995106699877,547.913493799977,,,,001,2021_May_03_1335,list_pa,2021.1.4,59.961025315987555,
sounds/droite.ogg,0.7,,4,0,4,0,0,37,37,25,,,,,550.0994178699796,None,,,,001,2021_May_03_1335,list_pa,2021.1.4,59.961025315987555,
sounds/gauche.ogg,0.7,,4,0,4,0,0,38,38,19,,,,,551.6006091699703,550.914680899994,,,,001,2021_May_03_1335,list_pa,2021.1.4,59.961025315987555,
sounds/droite.ogg,0.7,,4,0,4,0,0,39,39,29,,,,,553.1001298699878,552.4148796999943,,,,001,2021_May_03_1335,list_pa,2021.1.4,59.961025315987555,
sounds/gauche.ogg,0.7,,4,0,4,0,0,40,40,1,,,,,554.6011088699918,None,,,,001,2021_May_03_1335,list_pa,2021.1.4,59.961025315987555,
sounds/droite.ogg,0.7,,4,0,4,0,0,41,41,32,,,,,556.100854269974,555.4154735999764,,,,001,2021_May_03_1335,list_pa,2021.1.4,59.961025315987555,
sounds/gauche.ogg,0.7,,4,0,4,0,0,42,42,6,,,,,557.6016250699643,556.9160261999932,,,,001,2021_May_03_1335,list_pa,2021.1.4,59.961025315987555,
sounds/droite.ogg,0.7,,4,0,4,0,0,43,43,27,,,,,559.1017805699842,558.4161512999563,,,,001,2021_May_03_1335,list_pa,2021.1.4,59.961025315987555,
sounds/droite.ogg,0.7,,4,0,4,0,0,44,44,37,,,,,560.6018682700117,559.9165567999589,,,,001,2021_May_03_1335,list_pa,2021.1.4,59.961025315987555,
sounds/droite.ogg,0.7,,4,0,4,0,0,45,45,28,,,,,562.1018948699814,561.41694679996,,,,001,2021_May_03_1335,list_pa,2021.1.4,59.961025315987555,
sounds/droite.ogg,0.7,,4,0,4,0,0,46,46,48,,,,,563.6028091699584,562.917261399969,,,,001,2021_May_03_1335,list_pa,2021.1.4,59.961025315987555,
sounds/gauche.ogg,0.7,,4,0,4,0,0,47,47,0,,,,,565.10264777001,564.4178291999851,,,,001,2021_May_03_1335,list_pa,2021.1.4,59.961025315987555,
sounds/droite.ogg,0.7,,4,0,4,0,0,48,48,31,,,,,566.6027773700073,None,,,,001,2021_May_03_1335,list_pa,2021.1.4,59.961025315987555,
sounds/droite.ogg,0.7,,4,0,4,0,0,49,49,43,,,,,568.1033474699827,567.418390900013,,,,001,2021_May_03_1335,list_pa,2021.1.4,59.961025315987555,
,,30,4,0,4,0,,,,,0,0,0,0,,,568.9508178000106,None,,001,2021_May_03_1335,list_pa,2021.1.4,59.961025315987555,
,,29,4,0,4,0,,,,,0,1,1,1,,,569.9356860999833,None,,001,2021_May_03_1335,list_pa,2021.1.4,59.961025315987555,
,,28,4,0,4,0,,,,,0,2,2,2,,,570.9183143000118,None,,001,2021_May_03_1335,list_pa,2021.1.4,59.961025315987555,
,,27,4,0,4,0,,,,,0,3,3,3,,,571.9355845999671,None,,001,2021_May_03_1335,list_pa,2021.1.4,59.961025315987555,
,,26,4,0,4,0,,,,,0,4,4,4,,,572.9357940999907,None,,001,2021_May_03_1335,list_pa,2021.1.4,59.961025315987555,
,,25,4,0,4,0,,,,,0,5,5,5,,,573.9362266999669,None,,001,2021_May_03_1335,list_pa,2021.1.4,59.961025315987555,
,,24,4,0,4,0,,,,,0,6,6,6,,,574.9359379999805,None,,001,2021_May_03_1335,list_pa,2021.1.4,59.961025315987555,
,,23,4,0,4,0,,,,,0,7,7,7,,,575.9357094999868,None,,001,2021_May_03_1335,list_pa,2021.1.4,59.961025315987555,
,,22,4,0,4,0,,,,,0,8,8,8,,,576.9366161999642,None,,001,2021_May_03_1335,list_pa,2021.1.4,59.961025315987555,
,,21,4,0,4,0,,,,,0,9,9,9,,,577.936710799986,None,,001,2021_May_03_1335,list_pa,2021.1.4,59.961025315987555,
,,20,4,0,4,0,,,,,0,10,10,10,,,578.9373359999736,None,,001,2021_May_03_1335,list_pa,2021.1.4,59.961025315987555,
,,19,4,0,4,0,,,,,0,11,11,11,,,579.937092099979,None,,001,2021_May_03_1335,list_pa,2021.1.4,59.961025315987555,
,,18,4,0,4,0,,,,,0,12,12,12,,,580.9375716999639,None,,001,2021_May_03_1335,list_pa,2021.1.4,59.961025315987555,
,,17,4,0,4,0,,,,,0,13,13,13,,,581.9380856999778,None,,001,2021_May_03_1335,list_pa,2021.1.4,59.961025315987555,
,,16,4,0,4,0,,,,,0,14,14,14,,,582.9385587999714,None,,001,2021_May_03_1335,list_pa,2021.1.4,59.961025315987555,
,,15,4,0,4,0,,,,,0,15,15,15,,,583.938170199981,None,,001,2021_May_03_1335,list_pa,2021.1.4,59.961025315987555,
,,14,4,0,4,0,,,,,0,16,16,16,,,584.9384986999794,None,,001,2021_May_03_1335,list_pa,2021.1.4,59.961025315987555,
,,13,4,0,4,0,,,,,0,17,17,17,,,585.9394881000044,None,,001,2021_May_03_1335,list_pa,2021.1.4,59.961025315987555,
,,12,4,0,4,0,,,,,0,18,18,18,,,586.9226828999817,None,,001,2021_May_03_1335,list_pa,2021.1.4,59.961025315987555,
,,11,4,0,4,0,,,,,0,19,19,19,,,587.9389910000027,None,,001,2021_May_03_1335,list_pa,2021.1.4,59.961025315987555,
,,10,4,0,4,0,,,,,0,20,20,20,,,588.9393444999587,None,,001,2021_May_03_1335,list_pa,2021.1.4,59.961025315987555,
,,9,4,0,4,0,,,,,0,21,21,21,,,589.9386667999788,None,,001,2021_May_03_1335,list_pa,2021.1.4,59.961025315987555,
,,8,4,0,4,0,,,,,0,22,22,22,,,590.9235630999901,None,,001,2021_May_03_1335,list_pa,2021.1.4,59.961025315987555,
,,7,4,0,4,0,,,,,0,23,23,23,,,591.9237855999963,None,,001,2021_May_03_1335,list_pa,2021.1.4,59.961025315987555,
,,6,4,0,4,0,,,,,0,24,24,24,,,592.9241414999706,None,,001,2021_May_03_1335,list_pa,2021.1.4,59.961025315987555,
,,5,4,0,4,0,,,,,0,25,25,25,,,593.9239043999696,None,,001,2021_May_03_1335,list_pa,2021.1.4,59.961025315987555,
,,4,4,0,4,0,,,,,0,26,26,26,,,594.9240242000087,None,,001,2021_May_03_1335,list_pa,2021.1.4,59.961025315987555,
,,3,4,0,4,0,,,,,0,27,27,27,,,595.9238702000002,None,,001,2021_May_03_1335,list_pa,2021.1.4,59.961025315987555,
,,2,4,0,4,0,,,,,0,28,28,28,,,596.9243626999669,None,,001,2021_May_03_1335,list_pa,2021.1.4,59.961025315987555,
,,1,4,0,4,0,,,,,0,29,29,29,,,597.9244458999601,None,,001,2021_May_03_1335,list_pa,2021.1.4,59.961025315987555,
,,0,4,0,4,0,,,,,0,30,30,30,,,598.9244878999889,None,,001,2021_May_03_1335,list_pa,2021.1.4,59.961025315987555,
,,,4,0,4,0,,,,,,,,,,,,,,001,2021_May_03_1335,list_pa,2021.1.4,59.961025315987555,
