word_stimuli,isi,countdown,trials.thisRepN,trials.thisTrialN,trials.thisN,trials.thisIndex,trial_loop.thisRepN,trial_loop.thisTrialN,trial_loop.thisN,trial_loop.thisIndex,trials_2.thisRepN,trials_2.thisTrialN,trials_2.thisN,trials_2.thisIndex,sound_exposure.started,sound_exposure.stopped,text.started,text.stopped,participant,session,date,expName,psychopyVersion,frameRate,
sounds/droite.ogg,0.7,,0,0,0,0,0,0,0,31,,,,,29.76420919999655,None,,,,001,2021_May_10_1040,list_pa,2021.1.4,60.08586269757121,
sounds/gauche.ogg,0.7,,0,0,0,0,0,1,1,21,,,,,31.28119869999646,30.595495700021274,,,,001,2021_May_10_1040,list_pa,2021.1.4,60.08586269757121,
sounds/droite.ogg,0.7,,0,0,0,0,0,2,2,38,,,,,32.78242400001327,32.096419400011655,,,,001,2021_May_10_1040,list_pa,2021.1.4,60.08586269757121,
sounds/droite.ogg,0.7,,0,0,0,0,0,3,3,32,,,,,34.28245870001556,33.59743920000619,,,,001,2021_May_10_1040,list_pa,2021.1.4,60.08586269757121,
sounds/gauche.ogg,0.7,,0,0,0,0,0,4,4,23,,,,,35.782271600016976,None,,,,001,2021_May_10_1040,list_pa,2021.1.4,60.08586269757121,
sounds/droite.ogg,0.7,,0,0,0,0,0,5,5,28,,,,,37.28325020001794,36.59840950000216,,,,001,2021_May_10_1040,list_pa,2021.1.4,60.08586269757121,
sounds/gauche.ogg,0.7,,0,0,0,0,0,6,6,0,,,,,38.783169200012345,38.09818080000696,,,,001,2021_May_10_1040,list_pa,2021.1.4,60.08586269757121,
sounds/gauche.ogg,0.7,,0,0,0,0,0,7,7,12,,,,,40.283783000000405,39.59893190002185,,,,001,2021_May_10_1040,list_pa,2021.1.4,60.08586269757121,
sounds/gauche.ogg,0.7,,0,0,0,0,0,8,8,4,,,,,41.78421540000418,41.09932850001496,,,,001,2021_May_10_1040,list_pa,2021.1.4,60.08586269757121,
sounds/gauche.ogg,0.7,,0,0,0,0,0,9,9,2,,,,,43.28442360001791,42.59932960002334,,,,001,2021_May_10_1040,list_pa,2021.1.4,60.08586269757121,
sounds/droite.ogg,0.7,,0,0,0,0,0,10,10,25,,,,,44.785223199994654,44.099256800021976,,,,001,2021_May_10_1040,list_pa,2021.1.4,60.08586269757121,
sounds/gauche.ogg,0.7,,0,0,0,0,0,11,11,14,,,,,46.28533849999949,45.60012050002115,,,,001,2021_May_10_1040,list_pa,2021.1.4,60.08586269757121,
sounds/gauche.ogg,0.7,,0,0,0,0,0,12,12,18,,,,,47.78581940002332,47.100408700003754,,,,001,2021_May_10_1040,list_pa,2021.1.4,60.08586269757121,
sounds/droite.ogg,0.7,,0,0,0,0,0,13,13,47,,,,,49.28582709999464,48.60133730000234,,,,001,2021_May_10_1040,list_pa,2021.1.4,60.08586269757121,
sounds/droite.ogg,0.7,,0,0,0,0,0,14,14,34,,,,,50.7865575999982,50.10187060001772,,,,001,2021_May_10_1040,list_pa,2021.1.4,60.08586269757121,
sounds/droite.ogg,0.7,,0,0,0,0,0,15,15,26,,,,,52.28634250001924,None,,,,001,2021_May_10_1040,list_pa,2021.1.4,60.08586269757121,
sounds/gauche.ogg,0.7,,0,0,0,0,0,16,16,15,,,,,53.786791000000086,53.10201689999667,,,,001,2021_May_10_1040,list_pa,2021.1.4,60.08586269757121,
sounds/droite.ogg,0.7,,0,0,0,0,0,17,17,30,,,,,55.287462300018525,54.60297080001328,,,,001,2021_May_10_1040,list_pa,2021.1.4,60.08586269757121,
sounds/gauche.ogg,0.7,,0,0,0,0,0,18,18,11,,,,,56.788248800011935,56.101378100021975,,,,001,2021_May_10_1040,list_pa,2021.1.4,60.08586269757121,
sounds/droite.ogg,0.7,,0,0,0,0,0,19,19,46,,,,,58.28743600002199,57.60256960001425,,,,001,2021_May_10_1040,list_pa,2021.1.4,60.08586269757121,
sounds/droite.ogg,0.7,,0,0,0,0,0,20,20,37,,,,,59.78748229999619,59.101522600016324,,,,001,2021_May_10_1040,list_pa,2021.1.4,60.08586269757121,
sounds/droite.ogg,0.7,,0,0,0,0,0,21,21,43,,,,,61.28875080002181,60.6029084000038,,,,001,2021_May_10_1040,list_pa,2021.1.4,60.08586269757121,
sounds/droite.ogg,0.7,,0,0,0,0,0,22,22,36,,,,,62.78899650000094,62.103025800024625,,,,001,2021_May_10_1040,list_pa,2021.1.4,60.08586269757121,
sounds/gauche.ogg,0.7,,0,0,0,0,0,23,23,10,,,,,64.288616000014,63.60326640002313,,,,001,2021_May_10_1040,list_pa,2021.1.4,60.08586269757121,
sounds/droite.ogg,0.7,,0,0,0,0,0,24,24,42,,,,,65.7895274999988,65.10360190001666,,,,001,2021_May_10_1040,list_pa,2021.1.4,60.08586269757121,
sounds/gauche.ogg,0.7,,0,0,0,0,0,25,25,19,,,,,67.28917480001982,66.60392910000519,,,,001,2021_May_10_1040,list_pa,2021.1.4,60.08586269757121,
sounds/droite.ogg,0.7,,0,0,0,0,0,26,26,40,,,,,68.78941720000293,68.10427360000904,,,,001,2021_May_10_1040,list_pa,2021.1.4,60.08586269757121,
sounds/gauche.ogg,0.7,,0,0,0,0,0,27,27,1,,,,,70.28993470001441,None,,,,001,2021_May_10_1040,list_pa,2021.1.4,60.08586269757121,
sounds/gauche.ogg,0.7,,0,0,0,0,0,28,28,24,,,,,71.79021710001106,71.10496110000531,,,,001,2021_May_10_1040,list_pa,2021.1.4,60.08586269757121,
sounds/gauche.ogg,0.7,,0,0,0,0,0,29,29,3,,,,,73.29089240000175,72.60527980001643,,,,001,2021_May_10_1040,list_pa,2021.1.4,60.08586269757121,
sounds/droite.ogg,0.7,,0,0,0,0,0,30,30,45,,,,,74.79084219999785,None,,,,001,2021_May_10_1040,list_pa,2021.1.4,60.08586269757121,
sounds/droite.ogg,0.7,,0,0,0,0,0,31,31,44,,,,,76.29075880000309,75.60604910002439,,,,001,2021_May_10_1040,list_pa,2021.1.4,60.08586269757121,
sounds/gauche.ogg,0.7,,0,0,0,0,0,32,32,6,,,,,77.79208150000485,77.10615460001281,,,,001,2021_May_10_1040,list_pa,2021.1.4,60.08586269757121,
sounds/droite.ogg,0.7,,0,0,0,0,0,33,33,39,,,,,79.29129480000992,78.60694430000149,,,,001,2021_May_10_1040,list_pa,2021.1.4,60.08586269757121,
sounds/gauche.ogg,0.7,,0,0,0,0,0,34,34,13,,,,,80.79155299999692,80.10722920001717,,,,001,2021_May_10_1040,list_pa,2021.1.4,60.08586269757121,
sounds/droite.ogg,0.7,,0,0,0,0,0,35,35,33,,,,,82.29193129999621,81.60697410002467,,,,001,2021_May_10_1040,list_pa,2021.1.4,60.08586269757121,
sounds/gauche.ogg,0.7,,0,0,0,0,0,36,36,17,,,,,83.7926123000012,83.1078462000005,,,,001,2021_May_10_1040,list_pa,2021.1.4,60.08586269757121,
sounds/droite.ogg,0.7,,0,0,0,0,0,37,37,41,,,,,85.29274860002042,84.6081406000012,,,,001,2021_May_10_1040,list_pa,2021.1.4,60.08586269757121,
sounds/gauche.ogg,0.7,,0,0,0,0,0,38,38,16,,,,,86.79312880000506,None,,,,001,2021_May_10_1040,list_pa,2021.1.4,60.08586269757121,
sounds/droite.ogg,0.7,,0,0,0,0,0,39,39,29,,,,,88.29308959999761,87.60772339999676,,,,001,2021_May_10_1040,list_pa,2021.1.4,60.08586269757121,
sounds/gauche.ogg,0.7,,0,0,0,0,0,40,40,8,,,,,89.79421650002186,89.10910729999887,,,,001,2021_May_10_1040,list_pa,2021.1.4,60.08586269757121,
sounds/droite.ogg,0.7,,0,0,0,0,0,41,41,48,,,,,91.29411090000357,None,,,,001,2021_May_10_1040,list_pa,2021.1.4,60.08586269757121,
sounds/gauche.ogg,0.7,,0,0,0,0,0,42,42,20,,,,,92.79555370001762,92.10826269999961,,,,001,2021_May_10_1040,list_pa,2021.1.4,60.08586269757121,
sounds/gauche.ogg,0.7,,0,0,0,0,0,43,43,7,,,,,94.29556639999791,93.6105910000042,,,,001,2021_May_10_1040,list_pa,2021.1.4,60.08586269757121,
sounds/droite.ogg,0.7,,0,0,0,0,0,44,44,27,,,,,95.79525160001648,95.11037760000909,,,,001,2021_May_10_1040,list_pa,2021.1.4,60.08586269757121,
sounds/droite.ogg,0.7,,0,0,0,0,0,45,45,35,,,,,97.29576889999734,96.61052330001257,,,,001,2021_May_10_1040,list_pa,2021.1.4,60.08586269757121,
sounds/gauche.ogg,0.7,,0,0,0,0,0,46,46,9,,,,,98.79582239999726,98.10969620000105,,,,001,2021_May_10_1040,list_pa,2021.1.4,60.08586269757121,
sounds/gauche.ogg,0.7,,0,0,0,0,0,47,47,5,,,,,100.29658850000996,99.611041199998,,,,001,2021_May_10_1040,list_pa,2021.1.4,60.08586269757121,
sounds/gauche.ogg,0.7,,0,0,0,0,0,48,48,22,,,,,101.79677910000609,None,,,,001,2021_May_10_1040,list_pa,2021.1.4,60.08586269757121,
sounds/droite.ogg,0.7,,0,0,0,0,0,49,49,49,,,,,103.2972220000025,None,,,,001,2021_May_10_1040,list_pa,2021.1.4,60.08586269757121,
,,30,0,0,0,0,,,,,0,0,0,0,,,104.40407750001759,None,,001,2021_May_10_1040,list_pa,2021.1.4,60.08586269757121,
,,29,0,0,0,0,,,,,0,1,1,1,,,105.1452813000069,None,,001,2021_May_10_1040,list_pa,2021.1.4,60.08586269757121,
,,28,0,0,0,0,,,,,0,2,2,2,,,106.12887200000114,None,,001,2021_May_10_1040,list_pa,2021.1.4,60.08586269757121,
,,27,0,0,0,0,,,,,0,3,3,3,,,107.1295461000118,None,,001,2021_May_10_1040,list_pa,2021.1.4,60.08586269757121,
,,26,0,0,0,0,,,,,0,4,4,4,,,108.12942270000349,None,,001,2021_May_10_1040,list_pa,2021.1.4,60.08586269757121,
,,25,0,0,0,0,,,,,0,5,5,5,,,109.129488400009,None,,001,2021_May_10_1040,list_pa,2021.1.4,60.08586269757121,
,,24,0,0,0,0,,,,,0,6,6,6,,,110.12889340001857,None,,001,2021_May_10_1040,list_pa,2021.1.4,60.08586269757121,
,,23,0,0,0,0,,,,,0,7,7,7,,,111.1303470999992,None,,001,2021_May_10_1040,list_pa,2021.1.4,60.08586269757121,
,,22,0,0,0,0,,,,,0,8,8,8,,,112.13016690002405,None,,001,2021_May_10_1040,list_pa,2021.1.4,60.08586269757121,
,,21,0,0,0,0,,,,,0,9,9,9,,,113.13070900001912,None,,001,2021_May_10_1040,list_pa,2021.1.4,60.08586269757121,
,,20,0,0,0,0,,,,,0,10,10,10,,,114.13118850000319,None,,001,2021_May_10_1040,list_pa,2021.1.4,60.08586269757121,
,,19,0,0,0,0,,,,,0,11,11,11,,,115.1314674000023,None,,001,2021_May_10_1040,list_pa,2021.1.4,60.08586269757121,
,,18,0,0,0,0,,,,,0,12,12,12,,,116.13111090002349,None,,001,2021_May_10_1040,list_pa,2021.1.4,60.08586269757121,
,,17,0,0,0,0,,,,,0,13,13,13,,,117.13186760002282,None,,001,2021_May_10_1040,list_pa,2021.1.4,60.08586269757121,
,,16,0,0,0,0,,,,,0,14,14,14,,,118.13185900001554,None,,001,2021_May_10_1040,list_pa,2021.1.4,60.08586269757121,
,,15,0,0,0,0,,,,,0,15,15,15,,,119.13213250000263,None,,001,2021_May_10_1040,list_pa,2021.1.4,60.08586269757121,
,,14,0,0,0,0,,,,,0,16,16,16,,,120.13186160000623,None,,001,2021_May_10_1040,list_pa,2021.1.4,60.08586269757121,
,,13,0,0,0,0,,,,,0,17,17,17,,,121.1318622000108,None,,001,2021_May_10_1040,list_pa,2021.1.4,60.08586269757121,
,,12,0,0,0,0,,,,,0,18,18,18,,,122.13303690002067,None,,001,2021_May_10_1040,list_pa,2021.1.4,60.08586269757121,
,,11,0,0,0,0,,,,,0,19,19,19,,,123.13246520000394,None,,001,2021_May_10_1040,list_pa,2021.1.4,60.08586269757121,
,,10,0,0,0,0,,,,,0,20,20,20,,,124.11599990000832,None,,001,2021_May_10_1040,list_pa,2021.1.4,60.08586269757121,
,,9,0,0,0,0,,,,,0,21,21,21,,,125.13247270000284,None,,001,2021_May_10_1040,list_pa,2021.1.4,60.08586269757121,
,,8,0,0,0,0,,,,,0,22,22,22,,,126.13308460000553,None,,001,2021_May_10_1040,list_pa,2021.1.4,60.08586269757121,
,,7,0,0,0,0,,,,,0,23,23,23,,,127.11668289999943,None,,001,2021_May_10_1040,list_pa,2021.1.4,60.08586269757121,
,,6,0,0,0,0,,,,,0,24,24,24,,,128.13284659999772,None,,001,2021_May_10_1040,list_pa,2021.1.4,60.08586269757121,
,,5,0,0,0,0,,,,,0,25,25,25,,,129.1166012000176,None,,001,2021_May_10_1040,list_pa,2021.1.4,60.08586269757121,
,,4,0,0,0,0,,,,,0,26,26,26,,,130.11690429999726,None,,001,2021_May_10_1040,list_pa,2021.1.4,60.08586269757121,
,,3,0,0,0,0,,,,,0,27,27,27,,,131.11725780001143,None,,001,2021_May_10_1040,list_pa,2021.1.4,60.08586269757121,
,,2,0,0,0,0,,,,,0,28,28,28,,,132.11750270001357,None,,001,2021_May_10_1040,list_pa,2021.1.4,60.08586269757121,
,,1,0,0,0,0,,,,,0,29,29,29,,,133.1178571000055,None,,001,2021_May_10_1040,list_pa,2021.1.4,60.08586269757121,
,,0,0,0,0,0,,,,,0,30,30,30,,,134.11790870002005,None,,001,2021_May_10_1040,list_pa,2021.1.4,60.08586269757121,
,,,0,0,0,0,,,,,,,,,,,,,,001,2021_May_10_1040,list_pa,2021.1.4,60.08586269757121,
sounds/droite.ogg,0.7,,1,0,1,0,0,0,0,40,,,,,135.83623160000715,None,,,,001,2021_May_10_1040,list_pa,2021.1.4,60.08586269757121,
sounds/droite.ogg,0.7,,1,0,1,0,0,1,1,29,,,,,137.3372858000017,None,,,,001,2021_May_10_1040,list_pa,2021.1.4,60.08586269757121,
sounds/droite.ogg,0.7,,1,0,1,0,0,2,2,36,,,,,138.83712439999508,138.15200240002014,,,,001,2021_May_10_1040,list_pa,2021.1.4,60.08586269757121,
sounds/droite.ogg,0.7,,1,0,1,0,0,3,3,34,,,,,140.3374234000017,139.65207140002167,,,,001,2021_May_10_1040,list_pa,2021.1.4,60.08586269757121,
sounds/gauche.ogg,0.7,,1,0,1,0,0,4,4,15,,,,,141.83834290001832,141.15266680001514,,,,001,2021_May_10_1040,list_pa,2021.1.4,60.08586269757121,
sounds/droite.ogg,0.7,,1,0,1,0,0,5,5,41,,,,,143.33764469999878,142.6534027000016,,,,001,2021_May_10_1040,list_pa,2021.1.4,60.08586269757121,
sounds/droite.ogg,0.7,,1,0,1,0,0,6,6,38,,,,,144.83876140000356,None,,,,001,2021_May_10_1040,list_pa,2021.1.4,60.08586269757121,
sounds/droite.ogg,0.7,,1,0,1,0,0,7,7,42,,,,,146.35569090001226,None,,,,001,2021_May_10_1040,list_pa,2021.1.4,60.08586269757121,
sounds/droite.ogg,0.7,,1,0,1,0,0,8,8,26,,,,,147.85549680001859,147.17149140001857,,,,001,2021_May_10_1040,list_pa,2021.1.4,60.08586269757121,
sounds/gauche.ogg,0.7,,1,0,1,0,0,9,9,11,,,,,149.3562274000229,148.6707343000162,,,,001,2021_May_10_1040,list_pa,2021.1.4,60.08586269757121,
sounds/gauche.ogg,0.7,,1,0,1,0,0,10,10,2,,,,,150.8561764000129,None,,,,001,2021_May_10_1040,list_pa,2021.1.4,60.08586269757121,
sounds/gauche.ogg,0.7,,1,0,1,0,0,11,11,13,,,,,152.35671349999902,151.67229350001435,,,,001,2021_May_10_1040,list_pa,2021.1.4,60.08586269757121,
sounds/droite.ogg,0.7,,1,0,1,0,0,12,12,27,,,,,153.85660070001322,153.1718918000115,,,,001,2021_May_10_1040,list_pa,2021.1.4,60.08586269757121,
sounds/droite.ogg,0.7,,1,0,1,0,0,13,13,28,,,,,155.35663530001474,154.67233329999726,,,,001,2021_May_10_1040,list_pa,2021.1.4,60.08586269757121,
sounds/droite.ogg,0.7,,1,0,1,0,0,14,14,32,,,,,156.8573706999974,None,,,,001,2021_May_10_1040,list_pa,2021.1.4,60.08586269757121,
sounds/droite.ogg,0.7,,1,0,1,0,0,15,15,35,,,,,158.3583624000108,157.6727415000205,,,,001,2021_May_10_1040,list_pa,2021.1.4,60.08586269757121,
sounds/gauche.ogg,0.7,,1,0,1,0,0,16,16,17,,,,,159.8577730000048,159.17303710000124,,,,001,2021_May_10_1040,list_pa,2021.1.4,60.08586269757121,
sounds/droite.ogg,0.7,,1,0,1,0,0,17,17,33,,,,,161.35851150001108,160.6730521999998,,,,001,2021_May_10_1040,list_pa,2021.1.4,60.08586269757121,
sounds/gauche.ogg,0.7,,1,0,1,0,0,18,18,3,,,,,162.8585774000181,162.17344220000086,,,,001,2021_May_10_1040,list_pa,2021.1.4,60.08586269757121,
sounds/gauche.ogg,0.7,,1,0,1,0,0,19,19,5,,,,,164.35960269999632,None,,,,001,2021_May_10_1040,list_pa,2021.1.4,60.08586269757121,
sounds/droite.ogg,0.7,,1,0,1,0,0,20,20,37,,,,,165.85961789999564,165.17381629999727,,,,001,2021_May_10_1040,list_pa,2021.1.4,60.08586269757121,
sounds/gauche.ogg,0.7,,1,0,1,0,0,21,21,9,,,,,167.35938630000746,166.67421840000316,,,,001,2021_May_10_1040,list_pa,2021.1.4,60.08586269757121,
sounds/droite.ogg,0.7,,1,0,1,0,0,22,22,47,,,,,168.8598674000037,None,,,,001,2021_May_10_1040,list_pa,2021.1.4,60.08586269757121,
sounds/gauche.ogg,0.7,,1,0,1,0,0,23,23,23,,,,,170.36017900001897,169.67534820002038,,,,001,2021_May_10_1040,list_pa,2021.1.4,60.08586269757121,
sounds/gauche.ogg,0.7,,1,0,1,0,0,24,24,20,,,,,171.86012030000856,171.17540279999957,,,,001,2021_May_10_1040,list_pa,2021.1.4,60.08586269757121,
sounds/gauche.ogg,0.7,,1,0,1,0,0,25,25,16,,,,,173.35831849999667,172.67571080001653,,,,001,2021_May_10_1040,list_pa,2021.1.4,60.08586269757121,
sounds/droite.ogg,0.7,,1,0,1,0,0,26,26,43,,,,,174.86078120000602,174.17620000001625,,,,001,2021_May_10_1040,list_pa,2021.1.4,60.08586269757121,
sounds/gauche.ogg,0.7,,1,0,1,0,0,27,27,21,,,,,176.359904200022,175.67556090001017,,,,001,2021_May_10_1040,list_pa,2021.1.4,60.08586269757121,
sounds/droite.ogg,0.7,,1,0,1,0,0,28,28,25,,,,,177.8618374000158,177.17681370000355,,,,001,2021_May_10_1040,list_pa,2021.1.4,60.08586269757121,
sounds/gauche.ogg,0.7,,1,0,1,0,0,29,29,18,,,,,179.36181619999988,178.67715030000545,,,,001,2021_May_10_1040,list_pa,2021.1.4,60.08586269757121,
sounds/gauche.ogg,0.7,,1,0,1,0,0,30,30,14,,,,,180.86220650000323,None,,,,001,2021_May_10_1040,list_pa,2021.1.4,60.08586269757121,
sounds/gauche.ogg,0.7,,1,0,1,0,0,31,31,10,,,,,182.36277529999788,181.6774570000125,,,,001,2021_May_10_1040,list_pa,2021.1.4,60.08586269757121,
sounds/gauche.ogg,0.7,,1,0,1,0,0,32,32,19,,,,,183.862801400022,183.17780600002152,,,,001,2021_May_10_1040,list_pa,2021.1.4,60.08586269757121,
sounds/droite.ogg,0.7,,1,0,1,0,0,33,33,31,,,,,185.36338000000396,None,,,,001,2021_May_10_1040,list_pa,2021.1.4,60.08586269757121,
sounds/droite.ogg,0.7,,1,0,1,0,0,34,34,48,,,,,186.86372210001863,186.17865220000385,,,,001,2021_May_10_1040,list_pa,2021.1.4,60.08586269757121,
sounds/gauche.ogg,0.7,,1,0,1,0,0,35,35,12,,,,,188.3641426000191,187.67879350000294,,,,001,2021_May_10_1040,list_pa,2021.1.4,60.08586269757121,
sounds/gauche.ogg,0.7,,1,0,1,0,0,36,36,1,,,,,189.8642554000049,189.1792706999986,,,,001,2021_May_10_1040,list_pa,2021.1.4,60.08586269757121,
sounds/gauche.ogg,0.7,,1,0,1,0,0,37,37,6,,,,,191.36435180001135,190.67875980000827,,,,001,2021_May_10_1040,list_pa,2021.1.4,60.08586269757121,
sounds/droite.ogg,0.7,,1,0,1,0,0,38,38,45,,,,,192.86478559999668,192.1796452999988,,,,001,2021_May_10_1040,list_pa,2021.1.4,60.08586269757121,
sounds/gauche.ogg,0.7,,1,0,1,0,0,39,39,0,,,,,194.36496909999696,193.68228259999887,,,,001,2021_May_10_1040,list_pa,2021.1.4,60.08586269757121,
sounds/gauche.ogg,0.7,,1,0,1,0,0,40,40,7,,,,,195.86503880000382,195.18059860001085,,,,001,2021_May_10_1040,list_pa,2021.1.4,60.08586269757121,
sounds/droite.ogg,0.7,,1,0,1,0,0,41,41,30,,,,,197.3654698999977,196.68060500000138,,,,001,2021_May_10_1040,list_pa,2021.1.4,60.08586269757121,
sounds/droite.ogg,0.7,,1,0,1,0,0,42,42,44,,,,,198.86596830000926,198.18140980001772,,,,001,2021_May_10_1040,list_pa,2021.1.4,60.08586269757121,
sounds/droite.ogg,0.7,,1,0,1,0,0,43,43,49,,,,,200.36716180001676,None,,,,001,2021_May_10_1040,list_pa,2021.1.4,60.08586269757121,
sounds/droite.ogg,0.7,,1,0,1,0,0,44,44,46,,,,,201.86722049999807,201.18125990001136,,,,001,2021_May_10_1040,list_pa,2021.1.4,60.08586269757121,
sounds/gauche.ogg,0.7,,1,0,1,0,0,45,45,4,,,,,203.3670163000148,None,,,,001,2021_May_10_1040,list_pa,2021.1.4,60.08586269757121,
sounds/gauche.ogg,0.7,,1,0,1,0,0,46,46,22,,,,,204.86874030001636,204.18228920002002,,,,001,2021_May_10_1040,list_pa,2021.1.4,60.08586269757121,
sounds/gauche.ogg,0.7,,1,0,1,0,0,47,47,24,,,,,206.38420780001033,None,,,,001,2021_May_10_1040,list_pa,2021.1.4,60.08586269757121,
sounds/droite.ogg,0.7,,1,0,1,0,0,48,48,39,,,,,207.883717600003,207.19979690000764,,,,001,2021_May_10_1040,list_pa,2021.1.4,60.08586269757121,
sounds/gauche.ogg,0.7,,1,0,1,0,0,49,49,8,,,,,209.38481190001184,208.6994547000213,,,,001,2021_May_10_1040,list_pa,2021.1.4,60.08586269757121,
,,30,1,0,1,0,,,,,0,0,0,0,,,210.23310340000899,None,,001,2021_May_10_1040,list_pa,2021.1.4,60.08586269757121,
,,29,1,0,1,0,,,,,0,1,1,1,,,211.21714290001546,None,,001,2021_May_10_1040,list_pa,2021.1.4,60.08586269757121,
,,28,1,0,1,0,,,,,0,2,2,2,,,212.2158652000071,None,,001,2021_May_10_1040,list_pa,2021.1.4,60.08586269757121,
,,27,1,0,1,0,,,,,0,3,3,3,,,213.2171565000026,None,,001,2021_May_10_1040,list_pa,2021.1.4,60.08586269757121,
,,26,1,0,1,0,,,,,0,4,4,4,,,214.21772660000715,None,,001,2021_May_10_1040,list_pa,2021.1.4,60.08586269757121,
,,25,1,0,1,0,,,,,0,5,5,5,,,215.21785110002384,None,,001,2021_May_10_1040,list_pa,2021.1.4,60.08586269757121,
,,24,1,0,1,0,,,,,0,6,6,6,,,216.21751159999985,None,,001,2021_May_10_1040,list_pa,2021.1.4,60.08586269757121,
,,23,1,0,1,0,,,,,0,7,7,7,,,217.21830820001196,None,,001,2021_May_10_1040,list_pa,2021.1.4,60.08586269757121,
,,22,1,0,1,0,,,,,0,8,8,8,,,218.21849430000293,None,,001,2021_May_10_1040,list_pa,2021.1.4,60.08586269757121,
,,21,1,0,1,0,,,,,0,9,9,9,,,219.21883220001473,None,,001,2021_May_10_1040,list_pa,2021.1.4,60.08586269757121,
,,20,1,0,1,0,,,,,0,10,10,10,,,220.21889350001584,None,,001,2021_May_10_1040,list_pa,2021.1.4,60.08586269757121,
,,19,1,0,1,0,,,,,0,11,11,11,,,221.21929170002113,None,,001,2021_May_10_1040,list_pa,2021.1.4,60.08586269757121,
,,18,1,0,1,0,,,,,0,12,12,12,,,222.20271730000968,None,,001,2021_May_10_1040,list_pa,2021.1.4,60.08586269757121,
,,17,1,0,1,0,,,,,0,13,13,13,,,223.20261980002397,None,,001,2021_May_10_1040,list_pa,2021.1.4,60.08586269757121,
,,16,1,0,1,0,,,,,0,14,14,14,,,224.2028377999959,None,,001,2021_May_10_1040,list_pa,2021.1.4,60.08586269757121,
,,15,1,0,1,0,,,,,0,15,15,15,,,225.20272100000875,None,,001,2021_May_10_1040,list_pa,2021.1.4,60.08586269757121,
,,14,1,0,1,0,,,,,0,16,16,16,,,226.2032492000144,None,,001,2021_May_10_1040,list_pa,2021.1.4,60.08586269757121,
,,13,1,0,1,0,,,,,0,17,17,17,,,227.2033123000001,None,,001,2021_May_10_1040,list_pa,2021.1.4,60.08586269757121,
,,12,1,0,1,0,,,,,0,18,18,18,,,228.2033910000173,None,,001,2021_May_10_1040,list_pa,2021.1.4,60.08586269757121,
,,11,1,0,1,0,,,,,0,19,19,19,,,229.20349850002094,None,,001,2021_May_10_1040,list_pa,2021.1.4,60.08586269757121,
,,10,1,0,1,0,,,,,0,20,20,20,,,230.20370720000938,None,,001,2021_May_10_1040,list_pa,2021.1.4,60.08586269757121,
,,9,1,0,1,0,,,,,0,21,21,21,,,231.20378170002368,None,,001,2021_May_10_1040,list_pa,2021.1.4,60.08586269757121,
,,8,1,0,1,0,,,,,0,22,22,22,,,232.20404199999757,None,,001,2021_May_10_1040,list_pa,2021.1.4,60.08586269757121,
,,7,1,0,1,0,,,,,0,23,23,23,,,233.20461929999874,None,,001,2021_May_10_1040,list_pa,2021.1.4,60.08586269757121,
,,6,1,0,1,0,,,,,0,24,24,24,,,234.20511609999812,None,,001,2021_May_10_1040,list_pa,2021.1.4,60.08586269757121,
,,5,1,0,1,0,,,,,0,25,25,25,,,235.20525729999645,None,,001,2021_May_10_1040,list_pa,2021.1.4,60.08586269757121,
,,4,1,0,1,0,,,,,0,26,26,26,,,236.20521050001844,None,,001,2021_May_10_1040,list_pa,2021.1.4,60.08586269757121,
,,3,1,0,1,0,,,,,0,27,27,27,,,237.20569120001164,None,,001,2021_May_10_1040,list_pa,2021.1.4,60.08586269757121,
,,2,1,0,1,0,,,,,0,28,28,28,,,238.2057319000014,None,,001,2021_May_10_1040,list_pa,2021.1.4,60.08586269757121,
,,1,1,0,1,0,,,,,0,29,29,29,,,239.20609040002455,None,,001,2021_May_10_1040,list_pa,2021.1.4,60.08586269757121,
,,0,1,0,1,0,,,,,0,30,30,30,,,240.2061278000183,None,,001,2021_May_10_1040,list_pa,2021.1.4,60.08586269757121,
,,,1,0,1,0,,,,,,,,,,,,,,001,2021_May_10_1040,list_pa,2021.1.4,60.08586269757121,
sounds/gauche.ogg,0.7,,2,0,2,0,0,0,0,4,,,,,241.9079856000113,None,,,,001,2021_May_10_1040,list_pa,2021.1.4,60.08586269757121,
sounds/gauche.ogg,0.7,,2,0,2,0,0,1,1,19,,,,,243.40855329999758,None,,,,001,2021_May_10_1040,list_pa,2021.1.4,60.08586269757121,
sounds/gauche.ogg,0.7,,2,0,2,0,0,2,2,18,,,,,244.90906790001608,244.22351120001986,,,,001,2021_May_10_1040,list_pa,2021.1.4,60.08586269757121,
sounds/droite.ogg,0.7,,2,0,2,0,0,3,3,46,,,,,246.4091796000226,245.72357280002325,,,,001,2021_May_10_1040,list_pa,2021.1.4,60.08586269757121,
sounds/droite.ogg,0.7,,2,0,2,0,0,4,4,34,,,,,247.90983090000518,247.22369690000778,,,,001,2021_May_10_1040,list_pa,2021.1.4,60.08586269757121,
sounds/gauche.ogg,0.7,,2,0,2,0,0,5,5,7,,,,,249.4097020000132,248.72424930002308,,,,001,2021_May_10_1040,list_pa,2021.1.4,60.08586269757121,
sounds/gauche.ogg,0.7,,2,0,2,0,0,6,6,24,,,,,250.90950519999896,250.22478320001392,,,,001,2021_May_10_1040,list_pa,2021.1.4,60.08586269757121,
sounds/gauche.ogg,0.7,,2,0,2,0,0,7,7,20,,,,,252.41007370002043,251.7250755999994,,,,001,2021_May_10_1040,list_pa,2021.1.4,60.08586269757121,
sounds/droite.ogg,0.7,,2,0,2,0,0,8,8,41,,,,,253.91081380000978,253.22562189999735,,,,001,2021_May_10_1040,list_pa,2021.1.4,60.08586269757121,
sounds/gauche.ogg,0.7,,2,0,2,0,0,9,9,10,,,,,255.41034040001395,254.7246051999973,,,,001,2021_May_10_1040,list_pa,2021.1.4,60.08586269757121,
sounds/droite.ogg,0.7,,2,0,2,0,0,10,10,27,,,,,256.9107661999966,256.2262891000137,,,,001,2021_May_10_1040,list_pa,2021.1.4,60.08586269757121,
sounds/gauche.ogg,0.7,,2,0,2,0,0,11,11,13,,,,,258.4106898999977,257.72661080001853,,,,001,2021_May_10_1040,list_pa,2021.1.4,60.08586269757121,
sounds/droite.ogg,0.7,,2,0,2,0,0,12,12,44,,,,,259.9113214000041,None,,,,001,2021_May_10_1040,list_pa,2021.1.4,60.08586269757121,
sounds/gauche.ogg,0.7,,2,0,2,0,0,13,13,23,,,,,261.412152500017,260.7272153000231,,,,001,2021_May_10_1040,list_pa,2021.1.4,60.08586269757121,
sounds/gauche.ogg,0.7,,2,0,2,0,0,14,14,3,,,,,262.91268740001544,262.22745390000637,,,,001,2021_May_10_1040,list_pa,2021.1.4,60.08586269757121,
sounds/gauche.ogg,0.7,,2,0,2,0,0,15,15,21,,,,,264.412160800022,None,,,,001,2021_May_10_1040,list_pa,2021.1.4,60.08586269757121,
sounds/droite.ogg,0.7,,2,0,2,0,0,16,16,30,,,,,265.9125524000061,265.22811840000213,,,,001,2021_May_10_1040,list_pa,2021.1.4,60.08586269757121,
sounds/gauche.ogg,0.7,,2,0,2,0,0,17,17,9,,,,,267.41362730001276,266.7281462000101,,,,001,2021_May_10_1040,list_pa,2021.1.4,60.08586269757121,
sounds/droite.ogg,0.7,,2,0,2,0,0,18,18,40,,,,,268.91327080000485,268.22842310002306,,,,001,2021_May_10_1040,list_pa,2021.1.4,60.08586269757121,
sounds/gauche.ogg,0.7,,2,0,2,0,0,19,19,16,,,,,270.41421520000733,269.7289389000216,,,,001,2021_May_10_1040,list_pa,2021.1.4,60.08586269757121,
sounds/droite.ogg,0.7,,2,0,2,0,0,20,20,37,,,,,271.9144390999951,271.22915769999963,,,,001,2021_May_10_1040,list_pa,2021.1.4,60.08586269757121,
sounds/droite.ogg,0.7,,2,0,2,0,0,21,21,31,,,,,273.4148116000084,272.72819680001703,,,,001,2021_May_10_1040,list_pa,2021.1.4,60.08586269757121,
sounds/gauche.ogg,0.7,,2,0,2,0,0,22,22,6,,,,,274.91474350001374,274.22879850000027,,,,001,2021_May_10_1040,list_pa,2021.1.4,60.08586269757121,
sounds/droite.ogg,0.7,,2,0,2,0,0,23,23,33,,,,,276.41508790001683,None,,,,001,2021_May_10_1040,list_pa,2021.1.4,60.08586269757121,
sounds/gauche.ogg,0.7,,2,0,2,0,0,24,24,11,,,,,277.9155513999955,277.2296314999985,,,,001,2021_May_10_1040,list_pa,2021.1.4,60.08586269757121,
sounds/droite.ogg,0.7,,2,0,2,0,0,25,25,32,,,,,279.4157831000135,278.7300499000121,,,,001,2021_May_10_1040,list_pa,2021.1.4,60.08586269757121,
sounds/droite.ogg,0.7,,2,0,2,0,0,26,26,35,,,,,280.9155681000062,None,,,,001,2021_May_10_1040,list_pa,2021.1.4,60.08586269757121,
sounds/gauche.ogg,0.7,,2,0,2,0,0,27,27,1,,,,,282.4162664999982,281.73163190000923,,,,001,2021_May_10_1040,list_pa,2021.1.4,60.08586269757121,
sounds/gauche.ogg,0.7,,2,0,2,0,0,28,28,5,,,,,283.9168347000174,None,,,,001,2021_May_10_1040,list_pa,2021.1.4,60.08586269757121,
sounds/droite.ogg,0.7,,2,0,2,0,0,29,29,25,,,,,285.4171797999967,284.7316527000221,,,,001,2021_May_10_1040,list_pa,2021.1.4,60.08586269757121,
sounds/droite.ogg,0.7,,2,0,2,0,0,30,30,28,,,,,286.9177629000129,286.23191620002035,,,,001,2021_May_10_1040,list_pa,2021.1.4,60.08586269757121,
sounds/droite.ogg,0.7,,2,0,2,0,0,31,31,36,,,,,288.4174502000184,287.7324302000052,,,,001,2021_May_10_1040,list_pa,2021.1.4,60.08586269757121,
sounds/gauche.ogg,0.7,,2,0,2,0,0,32,32,8,,,,,289.91859769999576,289.23230010000407,,,,001,2021_May_10_1040,list_pa,2021.1.4,60.08586269757121,
sounds/droite.ogg,0.7,,2,0,2,0,0,33,33,49,,,,,291.4186499000149,290.73275419999845,,,,001,2021_May_10_1040,list_pa,2021.1.4,60.08586269757121,
sounds/gauche.ogg,0.7,,2,0,2,0,0,34,34,22,,,,,292.91825670001856,292.2332677000086,,,,001,2021_May_10_1040,list_pa,2021.1.4,60.08586269757121,
sounds/droite.ogg,0.7,,2,0,2,0,0,35,35,45,,,,,294.4194042999967,293.73308180001914,,,,001,2021_May_10_1040,list_pa,2021.1.4,60.08586269757121,
sounds/gauche.ogg,0.7,,2,0,2,0,0,36,36,15,,,,,295.93568140001446,None,,,,001,2021_May_10_1040,list_pa,2021.1.4,60.08586269757121,
sounds/droite.ogg,0.7,,2,0,2,0,0,37,37,38,,,,,297.4363058999967,296.75114450001274,,,,001,2021_May_10_1040,list_pa,2021.1.4,60.08586269757121,
sounds/droite.ogg,0.7,,2,0,2,0,0,38,38,48,,,,,298.93632700001183,298.251304800011,,,,001,2021_May_10_1040,list_pa,2021.1.4,60.08586269757121,
sounds/gauche.ogg,0.7,,2,0,2,0,0,39,39,2,,,,,300.436500200021,299.75124199999846,,,,001,2021_May_10_1040,list_pa,2021.1.4,60.08586269757121,
sounds/droite.ogg,0.7,,2,0,2,0,0,40,40,29,,,,,301.9370398999978,None,,,,001,2021_May_10_1040,list_pa,2021.1.4,60.08586269757121,
sounds/gauche.ogg,0.7,,2,0,2,0,0,41,41,0,,,,,303.43714250002233,302.7523570000194,,,,001,2021_May_10_1040,list_pa,2021.1.4,60.08586269757121,
sounds/droite.ogg,0.7,,2,0,2,0,0,42,42,43,,,,,304.95415780001497,None,,,,001,2021_May_10_1040,list_pa,2021.1.4,60.08586269757121,
sounds/gauche.ogg,0.7,,2,0,2,0,0,43,43,17,,,,,306.45397850001757,305.76935080002295,,,,001,2021_May_10_1040,list_pa,2021.1.4,60.08586269757121,
sounds/droite.ogg,0.7,,2,0,2,0,0,44,44,42,,,,,307.9544059000124,307.268828500004,,,,001,2021_May_10_1040,list_pa,2021.1.4,60.08586269757121,
sounds/droite.ogg,0.7,,2,0,2,0,0,45,45,26,,,,,309.45534460000056,308.770393600018,,,,001,2021_May_10_1040,list_pa,2021.1.4,60.08586269757121,
sounds/gauche.ogg,0.7,,2,0,2,0,0,46,46,14,,,,,310.95490170000414,None,,,,001,2021_May_10_1040,list_pa,2021.1.4,60.08586269757121,
sounds/droite.ogg,0.7,,2,0,2,0,0,47,47,47,,,,,312.455612600004,311.7704893000191,,,,001,2021_May_10_1040,list_pa,2021.1.4,60.08586269757121,
sounds/droite.ogg,0.7,,2,0,2,0,0,48,48,39,,,,,313.95588430000646,313.2715105000243,,,,001,2021_May_10_1040,list_pa,2021.1.4,60.08586269757121,
sounds/gauche.ogg,0.7,,2,0,2,0,0,49,49,12,,,,,315.45678929999997,314.770743400004,,,,001,2021_May_10_1040,list_pa,2021.1.4,60.08586269757121,
,,30,2,0,2,0,,,,,0,0,0,0,,,316.2869766000076,None,,001,2021_May_10_1040,list_pa,2021.1.4,60.08586269757121,
,,29,2,0,2,0,,,,,0,1,1,1,,,317.28854850001517,None,,001,2021_May_10_1040,list_pa,2021.1.4,60.08586269757121,
,,28,2,0,2,0,,,,,0,2,2,2,,,318.2888418000075,None,,001,2021_May_10_1040,list_pa,2021.1.4,60.08586269757121,
,,27,2,0,2,0,,,,,0,3,3,3,,,319.2891437000071,None,,001,2021_May_10_1040,list_pa,2021.1.4,60.08586269757121,
,,26,2,0,2,0,,,,,0,4,4,4,,,320.28920050000306,None,,001,2021_May_10_1040,list_pa,2021.1.4,60.08586269757121,
,,25,2,0,2,0,,,,,0,5,5,5,,,321.2891307999962,None,,001,2021_May_10_1040,list_pa,2021.1.4,60.08586269757121,
,,24,2,0,2,0,,,,,0,6,6,6,,,322.28983419999713,None,,001,2021_May_10_1040,list_pa,2021.1.4,60.08586269757121,
,,23,2,0,2,0,,,,,0,7,7,7,,,323.2898508000071,None,,001,2021_May_10_1040,list_pa,2021.1.4,60.08586269757121,
,,22,2,0,2,0,,,,,0,8,8,8,,,324.29004170000553,None,,001,2021_May_10_1040,list_pa,2021.1.4,60.08586269757121,
,,21,2,0,2,0,,,,,0,9,9,9,,,325.2903377000184,None,,001,2021_May_10_1040,list_pa,2021.1.4,60.08586269757121,
,,20,2,0,2,0,,,,,0,10,10,10,,,326.2898868000193,None,,001,2021_May_10_1040,list_pa,2021.1.4,60.08586269757121,
,,19,2,0,2,0,,,,,0,11,11,11,,,327.2905158000067,None,,001,2021_May_10_1040,list_pa,2021.1.4,60.08586269757121,
,,18,2,0,2,0,,,,,0,12,12,12,,,328.27342810001574,None,,001,2021_May_10_1040,list_pa,2021.1.4,60.08586269757121,
,,17,2,0,2,0,,,,,0,13,13,13,,,329.2746602999978,None,,001,2021_May_10_1040,list_pa,2021.1.4,60.08586269757121,
,,16,2,0,2,0,,,,,0,14,14,14,,,330.2742867000052,None,,001,2021_May_10_1040,list_pa,2021.1.4,60.08586269757121,
,,15,2,0,2,0,,,,,0,15,15,15,,,331.27465669999947,None,,001,2021_May_10_1040,list_pa,2021.1.4,60.08586269757121,
,,14,2,0,2,0,,,,,0,16,16,16,,,332.27475920002325,None,,001,2021_May_10_1040,list_pa,2021.1.4,60.08586269757121,
,,13,2,0,2,0,,,,,0,17,17,17,,,333.2750006999995,None,,001,2021_May_10_1040,list_pa,2021.1.4,60.08586269757121,
,,12,2,0,2,0,,,,,0,18,18,18,,,334.2746251000208,None,,001,2021_May_10_1040,list_pa,2021.1.4,60.08586269757121,
,,11,2,0,2,0,,,,,0,19,19,19,,,335.2753236000135,None,,001,2021_May_10_1040,list_pa,2021.1.4,60.08586269757121,
,,10,2,0,2,0,,,,,0,20,20,20,,,336.27526500000386,None,,001,2021_May_10_1040,list_pa,2021.1.4,60.08586269757121,
,,9,2,0,2,0,,,,,0,21,21,21,,,337.2757454000239,None,,001,2021_May_10_1040,list_pa,2021.1.4,60.08586269757121,
,,8,2,0,2,0,,,,,0,22,22,22,,,338.2744726000237,None,,001,2021_May_10_1040,list_pa,2021.1.4,60.08586269757121,
,,7,2,0,2,0,,,,,0,23,23,23,,,339.2750072000199,None,,001,2021_May_10_1040,list_pa,2021.1.4,60.08586269757121,
,,6,2,0,2,0,,,,,0,24,24,24,,,340.27660260000266,None,,001,2021_May_10_1040,list_pa,2021.1.4,60.08586269757121,
,,5,2,0,2,0,,,,,0,25,25,25,,,341.27661220001755,None,,001,2021_May_10_1040,list_pa,2021.1.4,60.08586269757121,
,,4,2,0,2,0,,,,,0,26,26,26,,,342.27674830000615,None,,001,2021_May_10_1040,list_pa,2021.1.4,60.08586269757121,
,,3,2,0,2,0,,,,,0,27,27,27,,,343.27701370001887,None,,001,2021_May_10_1040,list_pa,2021.1.4,60.08586269757121,
,,2,2,0,2,0,,,,,0,28,28,28,,,344.2771023000241,None,,001,2021_May_10_1040,list_pa,2021.1.4,60.08586269757121,
,,1,2,0,2,0,,,,,0,29,29,29,,,345.2774245000037,None,,001,2021_May_10_1040,list_pa,2021.1.4,60.08586269757121,
,,0,2,0,2,0,,,,,0,30,30,30,,,346.2776172000158,None,,001,2021_May_10_1040,list_pa,2021.1.4,60.08586269757121,
,,,2,0,2,0,,,,,,,,,,,,,,001,2021_May_10_1040,list_pa,2021.1.4,60.08586269757121,
sounds/gauche.ogg,0.7,,3,0,3,0,0,0,0,9,,,,,348.0132431000035,None,,,,001,2021_May_10_1040,list_pa,2021.1.4,60.08586269757121,
sounds/gauche.ogg,0.7,,3,0,3,0,0,1,1,19,,,,,349.513254500003,None,,,,001,2021_May_10_1040,list_pa,2021.1.4,60.08586269757121,
sounds/gauche.ogg,0.7,,3,0,3,0,0,2,2,15,,,,,351.01318370001684,350.32861980001326,,,,001,2021_May_10_1040,list_pa,2021.1.4,60.08586269757121,
sounds/droite.ogg,0.7,,3,0,3,0,0,3,3,39,,,,,352.51381959999856,351.8291027000232,,,,001,2021_May_10_1040,list_pa,2021.1.4,60.08586269757121,
sounds/gauche.ogg,0.7,,3,0,3,0,0,4,4,1,,,,,354.0144357000041,None,,,,001,2021_May_10_1040,list_pa,2021.1.4,60.08586269757121,
sounds/gauche.ogg,0.7,,3,0,3,0,0,5,5,2,,,,,355.5147589000204,354.829284300009,,,,001,2021_May_10_1040,list_pa,2021.1.4,60.08586269757121,
sounds/droite.ogg,0.7,,3,0,3,0,0,6,6,38,,,,,357.015003999995,356.3303335000237,,,,001,2021_May_10_1040,list_pa,2021.1.4,60.08586269757121,
sounds/droite.ogg,0.7,,3,0,3,0,0,7,7,46,,,,,358.5155560000072,357.82996130001266,,,,001,2021_May_10_1040,list_pa,2021.1.4,60.08586269757121,
sounds/droite.ogg,0.7,,3,0,3,0,0,8,8,37,,,,,360.01555410002186,359.33057610000833,,,,001,2021_May_10_1040,list_pa,2021.1.4,60.08586269757121,
sounds/gauche.ogg,0.7,,3,0,3,0,0,9,9,8,,,,,361.51559550001696,360.83057580000605,,,,001,2021_May_10_1040,list_pa,2021.1.4,60.08586269757121,
sounds/gauche.ogg,0.7,,3,0,3,0,0,10,10,11,,,,,363.01580740000065,362.33125129999826,,,,001,2021_May_10_1040,list_pa,2021.1.4,60.08586269757121,
sounds/gauche.ogg,0.7,,3,0,3,0,0,11,11,10,,,,,364.5161563000089,363.83071390000987,,,,001,2021_May_10_1040,list_pa,2021.1.4,60.08586269757121,
sounds/gauche.ogg,0.7,,3,0,3,0,0,12,12,21,,,,,366.01662139999974,None,,,,001,2021_May_10_1040,list_pa,2021.1.4,60.08586269757121,
sounds/droite.ogg,0.7,,3,0,3,0,0,13,13,40,,,,,367.5169486000174,None,,,,001,2021_May_10_1040,list_pa,2021.1.4,60.08586269757121,
sounds/droite.ogg,0.7,,3,0,3,0,0,14,14,32,,,,,369.01724750002325,368.3329616000119,,,,001,2021_May_10_1040,list_pa,2021.1.4,60.08586269757121,
sounds/droite.ogg,0.7,,3,0,3,0,0,15,15,43,,,,,370.517262899995,369.8320126000035,,,,001,2021_May_10_1040,list_pa,2021.1.4,60.08586269757121,
sounds/gauche.ogg,0.7,,3,0,3,0,0,16,16,17,,,,,372.0187288000103,None,,,,001,2021_May_10_1040,list_pa,2021.1.4,60.08586269757121,
sounds/droite.ogg,0.7,,3,0,3,0,0,17,17,33,,,,,373.5178208999947,372.8328586000134,,,,001,2021_May_10_1040,list_pa,2021.1.4,60.08586269757121,
sounds/droite.ogg,0.7,,3,0,3,0,0,18,18,26,,,,,375.01834060002295,374.33309480000753,,,,001,2021_May_10_1040,list_pa,2021.1.4,60.08586269757121,
sounds/droite.ogg,0.7,,3,0,3,0,0,19,19,42,,,,,376.51867020000066,375.83366289999685,,,,001,2021_May_10_1040,list_pa,2021.1.4,60.08586269757121,
sounds/gauche.ogg,0.7,,3,0,3,0,0,20,20,22,,,,,378.0190157000121,377.33262540001306,,,,001,2021_May_10_1040,list_pa,2021.1.4,60.08586269757121,
sounds/droite.ogg,0.7,,3,0,3,0,0,21,21,36,,,,,379.51962390001574,378.8341207000194,,,,001,2021_May_10_1040,list_pa,2021.1.4,60.08586269757121,
sounds/droite.ogg,0.7,,3,0,3,0,0,22,22,29,,,,,381.0192933000013,380.3340667000157,,,,001,2021_May_10_1040,list_pa,2021.1.4,60.08586269757121,
sounds/gauche.ogg,0.7,,3,0,3,0,0,23,23,13,,,,,382.5196901999967,381.83376070001395,,,,001,2021_May_10_1040,list_pa,2021.1.4,60.08586269757121,
sounds/droite.ogg,0.7,,3,0,3,0,0,24,24,35,,,,,384.02065620001815,383.33572570001706,,,,001,2021_May_10_1040,list_pa,2021.1.4,60.08586269757121,
sounds/droite.ogg,0.7,,3,0,3,0,0,25,25,27,,,,,385.52020649999906,384.83607660001144,,,,001,2021_May_10_1040,list_pa,2021.1.4,60.08586269757121,
sounds/gauche.ogg,0.7,,3,0,3,0,0,26,26,23,,,,,387.02087330001234,386.3357038999966,,,,001,2021_May_10_1040,list_pa,2021.1.4,60.08586269757121,
sounds/gauche.ogg,0.7,,3,0,3,0,0,27,27,24,,,,,388.5206403000135,None,,,,001,2021_May_10_1040,list_pa,2021.1.4,60.08586269757121,
sounds/gauche.ogg,0.7,,3,0,3,0,0,28,28,5,,,,,390.02131879999945,389.33611360000214,,,,001,2021_May_10_1040,list_pa,2021.1.4,60.08586269757121,
sounds/gauche.ogg,0.7,,3,0,3,0,0,29,29,0,,,,,391.52080450001233,390.8373397999967,,,,001,2021_May_10_1040,list_pa,2021.1.4,60.08586269757121,
sounds/droite.ogg,0.7,,3,0,3,0,0,30,30,25,,,,,393.0211751000112,392.3371000000043,,,,001,2021_May_10_1040,list_pa,2021.1.4,60.08586269757121,
sounds/gauche.ogg,0.7,,3,0,3,0,0,31,31,20,,,,,394.52243469999814,393.83742640001583,,,,001,2021_May_10_1040,list_pa,2021.1.4,60.08586269757121,
sounds/gauche.ogg,0.7,,3,0,3,0,0,32,32,12,,,,,396.02227009999626,395.33761420001974,,,,001,2021_May_10_1040,list_pa,2021.1.4,60.08586269757121,
sounds/droite.ogg,0.7,,3,0,3,0,0,33,33,34,,,,,397.52203180001527,396.8377103000239,,,,001,2021_May_10_1040,list_pa,2021.1.4,60.08586269757121,
sounds/gauche.ogg,0.7,,3,0,3,0,0,34,34,16,,,,,399.02319610000416,398.3391739000217,,,,001,2021_May_10_1040,list_pa,2021.1.4,60.08586269757121,
sounds/droite.ogg,0.7,,3,0,3,0,0,35,35,48,,,,,400.5235210000043,399.8386120000214,,,,001,2021_May_10_1040,list_pa,2021.1.4,60.08586269757121,
sounds/droite.ogg,0.7,,3,0,3,0,0,36,36,28,,,,,402.0241891999991,401.3386751000071,,,,001,2021_May_10_1040,list_pa,2021.1.4,60.08586269757121,
sounds/droite.ogg,0.7,,3,0,3,0,0,37,37,31,,,,,403.52413559999843,402.83935620001284,,,,001,2021_May_10_1040,list_pa,2021.1.4,60.08586269757121,
sounds/droite.ogg,0.7,,3,0,3,0,0,38,38,45,,,,,405.0243457999983,None,,,,001,2021_May_10_1040,list_pa,2021.1.4,60.08586269757121,
sounds/droite.ogg,0.7,,3,0,3,0,0,39,39,41,,,,,406.52418940000064,405.8400220000185,,,,001,2021_May_10_1040,list_pa,2021.1.4,60.08586269757121,
sounds/droite.ogg,0.7,,3,0,3,0,0,40,40,47,,,,,408.0250229000027,407.340113800019,,,,001,2021_May_10_1040,list_pa,2021.1.4,60.08586269757121,
sounds/gauche.ogg,0.7,,3,0,3,0,0,41,41,3,,,,,409.5257592000213,408.839340800012,,,,001,2021_May_10_1040,list_pa,2021.1.4,60.08586269757121,
sounds/gauche.ogg,0.7,,3,0,3,0,0,42,42,7,,,,,411.025266899998,410.34041640002397,,,,001,2021_May_10_1040,list_pa,2021.1.4,60.08586269757121,
sounds/gauche.ogg,0.7,,3,0,3,0,0,43,43,18,,,,,412.52572230000226,None,,,,001,2021_May_10_1040,list_pa,2021.1.4,60.08586269757121,
sounds/gauche.ogg,0.7,,3,0,3,0,0,44,44,6,,,,,414.02629489999674,413.34130020000157,,,,001,2021_May_10_1040,list_pa,2021.1.4,60.08586269757121,
sounds/gauche.ogg,0.7,,3,0,3,0,0,45,45,14,,,,,415.5264130000229,414.84192120001535,,,,001,2021_May_10_1040,list_pa,2021.1.4,60.08586269757121,
sounds/droite.ogg,0.7,,3,0,3,0,0,46,46,49,,,,,417.0273283000075,None,,,,001,2021_May_10_1040,list_pa,2021.1.4,60.08586269757121,
sounds/droite.ogg,0.7,,3,0,3,0,0,47,47,44,,,,,418.5271110000118,417.84220760001335,,,,001,2021_May_10_1040,list_pa,2021.1.4,60.08586269757121,
sounds/droite.ogg,0.7,,3,0,3,0,0,48,48,30,,,,,420.0282533000078,419.3425627000106,,,,001,2021_May_10_1040,list_pa,2021.1.4,60.08586269757121,
sounds/gauche.ogg,0.7,,3,0,3,0,0,49,49,4,,,,,421.52797790000625,420.84254599999986,,,,001,2021_May_10_1040,list_pa,2021.1.4,60.08586269757121,
,,30,3,0,3,0,,,,,0,0,0,0,,,422.3585403000179,None,,001,2021_May_10_1040,list_pa,2021.1.4,60.08586269757121,
,,29,3,0,3,0,,,,,0,1,1,1,,,423.3605543000158,None,,001,2021_May_10_1040,list_pa,2021.1.4,60.08586269757121,
,,28,3,0,3,0,,,,,0,2,2,2,,,424.36046460000216,None,,001,2021_May_10_1040,list_pa,2021.1.4,60.08586269757121,
,,27,3,0,3,0,,,,,0,3,3,3,,,425.360528899997,None,,001,2021_May_10_1040,list_pa,2021.1.4,60.08586269757121,
,,26,3,0,3,0,,,,,0,4,4,4,,,426.3606589999981,None,,001,2021_May_10_1040,list_pa,2021.1.4,60.08586269757121,
,,25,3,0,3,0,,,,,0,5,5,5,,,427.36101110000163,None,,001,2021_May_10_1040,list_pa,2021.1.4,60.08586269757121,
,,24,3,0,3,0,,,,,0,6,6,6,,,428.36111460000393,None,,001,2021_May_10_1040,list_pa,2021.1.4,60.08586269757121,
,,23,3,0,3,0,,,,,0,7,7,7,,,429.3613455000159,None,,001,2021_May_10_1040,list_pa,2021.1.4,60.08586269757121,
,,22,3,0,3,0,,,,,0,8,8,8,,,430.3611180000007,None,,001,2021_May_10_1040,list_pa,2021.1.4,60.08586269757121,
,,21,3,0,3,0,,,,,0,9,9,9,,,431.36205530000734,None,,001,2021_May_10_1040,list_pa,2021.1.4,60.08586269757121,
,,20,3,0,3,0,,,,,0,10,10,10,,,432.34416229999624,None,,001,2021_May_10_1040,list_pa,2021.1.4,60.08586269757121,
,,19,3,0,3,0,,,,,0,11,11,11,,,433.36191870001494,None,,001,2021_May_10_1040,list_pa,2021.1.4,60.08586269757121,
,,18,3,0,3,0,,,,,0,12,12,12,,,434.36219600000186,None,,001,2021_May_10_1040,list_pa,2021.1.4,60.08586269757121,
,,17,3,0,3,0,,,,,0,13,13,13,,,435.36199940001825,None,,001,2021_May_10_1040,list_pa,2021.1.4,60.08586269757121,
,,16,3,0,3,0,,,,,0,14,14,14,,,436.362241099996,None,,001,2021_May_10_1040,list_pa,2021.1.4,60.08586269757121,
,,15,3,0,3,0,,,,,0,15,15,15,,,437.3624189000111,None,,001,2021_May_10_1040,list_pa,2021.1.4,60.08586269757121,
,,14,3,0,3,0,,,,,0,16,16,16,,,438.36285760000465,None,,001,2021_May_10_1040,list_pa,2021.1.4,60.08586269757121,
,,13,3,0,3,0,,,,,0,17,17,17,,,439.36300949999713,None,,001,2021_May_10_1040,list_pa,2021.1.4,60.08586269757121,
,,12,3,0,3,0,,,,,0,18,18,18,,,440.3632652000233,None,,001,2021_May_10_1040,list_pa,2021.1.4,60.08586269757121,
,,11,3,0,3,0,,,,,0,19,19,19,,,441.3632526000147,None,,001,2021_May_10_1040,list_pa,2021.1.4,60.08586269757121,
,,10,3,0,3,0,,,,,0,20,20,20,,,442.36323690001154,None,,001,2021_May_10_1040,list_pa,2021.1.4,60.08586269757121,
,,9,3,0,3,0,,,,,0,21,21,21,,,443.363431500009,None,,001,2021_May_10_1040,list_pa,2021.1.4,60.08586269757121,
,,8,3,0,3,0,,,,,0,22,22,22,,,444.3472933000012,None,,001,2021_May_10_1040,list_pa,2021.1.4,60.08586269757121,
,,7,3,0,3,0,,,,,0,23,23,23,,,445.34757850001915,None,,001,2021_May_10_1040,list_pa,2021.1.4,60.08586269757121,
,,6,3,0,3,0,,,,,0,24,24,24,,,446.3480937000131,None,,001,2021_May_10_1040,list_pa,2021.1.4,60.08586269757121,
,,5,3,0,3,0,,,,,0,25,25,25,,,447.3483481000003,None,,001,2021_May_10_1040,list_pa,2021.1.4,60.08586269757121,
,,4,3,0,3,0,,,,,0,26,26,26,,,448.3474751000176,None,,001,2021_May_10_1040,list_pa,2021.1.4,60.08586269757121,
,,3,3,0,3,0,,,,,0,27,27,27,,,449.34865970001556,None,,001,2021_May_10_1040,list_pa,2021.1.4,60.08586269757121,
,,2,3,0,3,0,,,,,0,28,28,28,,,450.34857590001775,None,,001,2021_May_10_1040,list_pa,2021.1.4,60.08586269757121,
,,1,3,0,3,0,,,,,0,29,29,29,,,451.3491633000085,None,,001,2021_May_10_1040,list_pa,2021.1.4,60.08586269757121,
,,0,3,0,3,0,,,,,0,30,30,30,,,452.3494352000125,None,,001,2021_May_10_1040,list_pa,2021.1.4,60.08586269757121,
,,,3,0,3,0,,,,,,,,,,,,,,001,2021_May_10_1040,list_pa,2021.1.4,60.08586269757121,
sounds/droite.ogg,0.7,,4,0,4,0,0,0,0,38,,,,,454.0680176999973,None,,,,001,2021_May_10_1040,list_pa,2021.1.4,60.08586269757121,
sounds/droite.ogg,0.7,,4,0,4,0,0,1,1,34,,,,,455.56845359999863,454.8818181999959,,,,001,2021_May_10_1040,list_pa,2021.1.4,60.08586269757121,
sounds/droite.ogg,0.7,,4,0,4,0,0,2,2,28,,,,,457.068262800001,456.38279370000237,,,,001,2021_May_10_1040,list_pa,2021.1.4,60.08586269757121,
sounds/gauche.ogg,0.7,,4,0,4,0,0,3,3,2,,,,,458.56912420001174,457.883229900006,,,,001,2021_May_10_1040,list_pa,2021.1.4,60.08586269757121,
sounds/droite.ogg,0.7,,4,0,4,0,0,4,4,44,,,,,460.0854070000147,None,,,,001,2021_May_10_1040,list_pa,2021.1.4,60.08586269757121,
sounds/droite.ogg,0.7,,4,0,4,0,0,5,5,47,,,,,461.5862137000164,460.9012706000067,,,,001,2021_May_10_1040,list_pa,2021.1.4,60.08586269757121,
sounds/gauche.ogg,0.7,,4,0,4,0,0,6,6,14,,,,,463.0862457999989,462.40187770000193,,,,001,2021_May_10_1040,list_pa,2021.1.4,60.08586269757121,
sounds/droite.ogg,0.7,,4,0,4,0,0,7,7,29,,,,,464.58700920002013,None,,,,001,2021_May_10_1040,list_pa,2021.1.4,60.08586269757121,
sounds/gauche.ogg,0.7,,4,0,4,0,0,8,8,21,,,,,466.0863564999978,None,,,,001,2021_May_10_1040,list_pa,2021.1.4,60.08586269757121,
sounds/droite.ogg,0.7,,4,0,4,0,0,9,9,31,,,,,467.5871592999989,None,,,,001,2021_May_10_1040,list_pa,2021.1.4,60.08586269757121,
sounds/droite.ogg,0.7,,4,0,4,0,0,10,10,35,,,,,469.0882862999948,468.40198120000423,,,,001,2021_May_10_1040,list_pa,2021.1.4,60.08586269757121,
sounds/gauche.ogg,0.7,,4,0,4,0,0,11,11,9,,,,,470.58827790001817,469.90241629999946,,,,001,2021_May_10_1040,list_pa,2021.1.4,60.08586269757121,
sounds/droite.ogg,0.7,,4,0,4,0,0,12,12,30,,,,,472.0876746999944,471.40291900001466,,,,001,2021_May_10_1040,list_pa,2021.1.4,60.08586269757121,
sounds/droite.ogg,0.7,,4,0,4,0,0,13,13,26,,,,,473.5886511000077,472.9032089000102,,,,001,2021_May_10_1040,list_pa,2021.1.4,60.08586269757121,
sounds/gauche.ogg,0.7,,4,0,4,0,0,14,14,24,,,,,475.0887132000149,474.40318370002205,,,,001,2021_May_10_1040,list_pa,2021.1.4,60.08586269757121,
sounds/gauche.ogg,0.7,,4,0,4,0,0,15,15,10,,,,,476.5889197000157,475.90352240001084,,,,001,2021_May_10_1040,list_pa,2021.1.4,60.08586269757121,
sounds/gauche.ogg,0.7,,4,0,4,0,0,16,16,20,,,,,478.089507300008,477.4038288000156,,,,001,2021_May_10_1040,list_pa,2021.1.4,60.08586269757121,
sounds/droite.ogg,0.7,,4,0,4,0,0,17,17,41,,,,,479.5892745000107,478.9039446999959,,,,001,2021_May_10_1040,list_pa,2021.1.4,60.08586269757121,
sounds/gauche.ogg,0.7,,4,0,4,0,0,18,18,7,,,,,481.0896222000098,480.4050069000223,,,,001,2021_May_10_1040,list_pa,2021.1.4,60.08586269757121,
sounds/droite.ogg,0.7,,4,0,4,0,0,19,19,46,,,,,482.5903714000102,None,,,,001,2021_May_10_1040,list_pa,2021.1.4,60.08586269757121,
sounds/droite.ogg,0.7,,4,0,4,0,0,20,20,25,,,,,484.0902648000134,483.4055028000148,,,,001,2021_May_10_1040,list_pa,2021.1.4,60.08586269757121,
sounds/gauche.ogg,0.7,,4,0,4,0,0,21,21,19,,,,,485.59059720001244,484.90551150002284,,,,001,2021_May_10_1040,list_pa,2021.1.4,60.08586269757121,
sounds/gauche.ogg,0.7,,4,0,4,0,0,22,22,3,,,,,487.0906107999996,486.4076905999973,,,,001,2021_May_10_1040,list_pa,2021.1.4,60.08586269757121,
sounds/gauche.ogg,0.7,,4,0,4,0,0,23,23,5,,,,,488.5894099999947,487.9062472000078,,,,001,2021_May_10_1040,list_pa,2021.1.4,60.08586269757121,
sounds/droite.ogg,0.7,,4,0,4,0,0,24,24,42,,,,,490.0910921999981,489.40659009999945,,,,001,2021_May_10_1040,list_pa,2021.1.4,60.08586269757121,
sounds/droite.ogg,0.7,,4,0,4,0,0,25,25,39,,,,,491.5916343000223,490.90623100000084,,,,001,2021_May_10_1040,list_pa,2021.1.4,60.08586269757121,
sounds/gauche.ogg,0.7,,4,0,4,0,0,26,26,13,,,,,493.0888157000096,492.40699660000973,,,,001,2021_May_10_1040,list_pa,2021.1.4,60.08586269757121,
sounds/droite.ogg,0.7,,4,0,4,0,0,27,27,43,,,,,494.57631310000727,493.8897186999966,,,,001,2021_May_10_1040,list_pa,2021.1.4,60.08586269757121,
sounds/droite.ogg,0.7,,4,0,4,0,0,28,28,32,,,,,496.0766635999986,495.39196430001175,,,,001,2021_May_10_1040,list_pa,2021.1.4,60.08586269757121,
sounds/gauche.ogg,0.7,,4,0,4,0,0,29,29,4,,,,,497.57682799999895,496.8920980000112,,,,001,2021_May_10_1040,list_pa,2021.1.4,60.08586269757121,
sounds/gauche.ogg,0.7,,4,0,4,0,0,30,30,16,,,,,499.0765139999945,None,,,,001,2021_May_10_1040,list_pa,2021.1.4,60.08586269757121,
sounds/droite.ogg,0.7,,4,0,4,0,0,31,31,33,,,,,500.57696080002063,None,,,,001,2021_May_10_1040,list_pa,2021.1.4,60.08586269757121,
sounds/droite.ogg,0.7,,4,0,4,0,0,32,32,48,,,,,502.077139700015,None,,,,001,2021_May_10_1040,list_pa,2021.1.4,60.08586269757121,
sounds/gauche.ogg,0.7,,4,0,4,0,0,33,33,8,,,,,503.5945749000035,None,,,,001,2021_May_10_1040,list_pa,2021.1.4,60.08586269757121,
sounds/gauche.ogg,0.7,,4,0,4,0,0,34,34,12,,,,,505.0949380000035,504.4098578999983,,,,001,2021_May_10_1040,list_pa,2021.1.4,60.08586269757121,
sounds/droite.ogg,0.7,,4,0,4,0,0,35,35,37,,,,,506.59477269999627,505.9084587999969,,,,001,2021_May_10_1040,list_pa,2021.1.4,60.08586269757121,
sounds/gauche.ogg,0.7,,4,0,4,0,0,36,36,15,,,,,508.09525859999997,507.41024749999633,,,,001,2021_May_10_1040,list_pa,2021.1.4,60.08586269757121,
sounds/gauche.ogg,0.7,,4,0,4,0,0,37,37,1,,,,,509.595398300016,508.9102957000141,,,,001,2021_May_10_1040,list_pa,2021.1.4,60.08586269757121,
sounds/gauche.ogg,0.7,,4,0,4,0,0,38,38,0,,,,,511.09628060001126,510.4114908000047,,,,001,2021_May_10_1040,list_pa,2021.1.4,60.08586269757121,
sounds/droite.ogg,0.7,,4,0,4,0,0,39,39,40,,,,,512.5968839000067,511.9122017000045,,,,001,2021_May_10_1040,list_pa,2021.1.4,60.08586269757121,
sounds/gauche.ogg,0.7,,4,0,4,0,0,40,40,22,,,,,514.095029800004,513.4119853000157,,,,001,2021_May_10_1040,list_pa,2021.1.4,60.08586269757121,
sounds/droite.ogg,0.7,,4,0,4,0,0,41,41,36,,,,,515.5972830000188,514.911379600002,,,,001,2021_May_10_1040,list_pa,2021.1.4,60.08586269757121,
sounds/gauche.ogg,0.7,,4,0,4,0,0,42,42,23,,,,,517.097030100014,516.4121470999962,,,,001,2021_May_10_1040,list_pa,2021.1.4,60.08586269757121,
sounds/gauche.ogg,0.7,,4,0,4,0,0,43,43,18,,,,,518.5973643999984,517.9128740000015,,,,001,2021_May_10_1040,list_pa,2021.1.4,60.08586269757121,
sounds/droite.ogg,0.7,,4,0,4,0,0,44,44,45,,,,,520.0976335000101,519.4125098000222,,,,001,2021_May_10_1040,list_pa,2021.1.4,60.08586269757121,
sounds/droite.ogg,0.7,,4,0,4,0,0,45,45,27,,,,,521.5984978000139,None,,,,001,2021_May_10_1040,list_pa,2021.1.4,60.08586269757121,
sounds/gauche.ogg,0.7,,4,0,4,0,0,46,46,6,,,,,523.0979742000142,522.413380700018,,,,001,2021_May_10_1040,list_pa,2021.1.4,60.08586269757121,
sounds/gauche.ogg,0.7,,4,0,4,0,0,47,47,17,,,,,524.5986295999988,523.9134407000092,,,,001,2021_May_10_1040,list_pa,2021.1.4,60.08586269757121,
sounds/droite.ogg,0.7,,4,0,4,0,0,48,48,49,,,,,526.0990771000012,525.4136405000172,,,,001,2021_May_10_1040,list_pa,2021.1.4,60.08586269757121,
sounds/gauche.ogg,0.7,,4,0,4,0,0,49,49,11,,,,,527.5993025000004,526.914244900021,,,,001,2021_May_10_1040,list_pa,2021.1.4,60.08586269757121,
,,30,4,0,4,0,,,,,0,0,0,0,,,528.4302860000171,None,,001,2021_May_10_1040,list_pa,2021.1.4,60.08586269757121,
,,29,4,0,4,0,,,,,0,1,1,1,,,529.4318435000023,None,,001,2021_May_10_1040,list_pa,2021.1.4,60.08586269757121,
,,28,4,0,4,0,,,,,0,2,2,2,,,530.4315343000053,None,,001,2021_May_10_1040,list_pa,2021.1.4,60.08586269757121,
,,27,4,0,4,0,,,,,0,3,3,3,,,531.4317531000124,None,,001,2021_May_10_1040,list_pa,2021.1.4,60.08586269757121,
,,26,4,0,4,0,,,,,0,4,4,4,,,532.415022000001,None,,001,2021_May_10_1040,list_pa,2021.1.4,60.08586269757121,
,,25,4,0,4,0,,,,,0,5,5,5,,,None,None,,001,2021_May_10_1040,list_pa,2021.1.4,60.08586269757121,
,,24,4,0,4,0,,,,,0,6,6,6,,,None,None,,001,2021_May_10_1040,list_pa,2021.1.4,60.08586269757121,
,,23,4,0,4,0,,,,,0,7,7,7,,,None,None,,001,2021_May_10_1040,list_pa,2021.1.4,60.08586269757121,
,,22,4,0,4,0,,,,,0,8,8,8,,,None,None,,001,2021_May_10_1040,list_pa,2021.1.4,60.08586269757121,
,,21,4,0,4,0,,,,,0,9,9,9,,,None,None,,001,2021_May_10_1040,list_pa,2021.1.4,60.08586269757121,
,,20,4,0,4,0,,,,,0,10,10,10,,,None,None,,001,2021_May_10_1040,list_pa,2021.1.4,60.08586269757121,
,,19,4,0,4,0,,,,,0,11,11,11,,,None,None,,001,2021_May_10_1040,list_pa,2021.1.4,60.08586269757121,
,,18,4,0,4,0,,,,,0,12,12,12,,,None,None,,001,2021_May_10_1040,list_pa,2021.1.4,60.08586269757121,
,,17,4,0,4,0,,,,,0,13,13,13,,,None,None,,001,2021_May_10_1040,list_pa,2021.1.4,60.08586269757121,
,,16,4,0,4,0,,,,,0,14,14,14,,,None,None,,001,2021_May_10_1040,list_pa,2021.1.4,60.08586269757121,
,,15,4,0,4,0,,,,,0,15,15,15,,,None,None,,001,2021_May_10_1040,list_pa,2021.1.4,60.08586269757121,
,,14,4,0,4,0,,,,,0,16,16,16,,,None,None,,001,2021_May_10_1040,list_pa,2021.1.4,60.08586269757121,
,,13,4,0,4,0,,,,,0,17,17,17,,,None,None,,001,2021_May_10_1040,list_pa,2021.1.4,60.08586269757121,
,,12,4,0,4,0,,,,,0,18,18,18,,,None,None,,001,2021_May_10_1040,list_pa,2021.1.4,60.08586269757121,
,,11,4,0,4,0,,,,,0,19,19,19,,,None,None,,001,2021_May_10_1040,list_pa,2021.1.4,60.08586269757121,
,,10,4,0,4,0,,,,,0,20,20,20,,,None,None,,001,2021_May_10_1040,list_pa,2021.1.4,60.08586269757121,
,,9,4,0,4,0,,,,,0,21,21,21,,,None,None,,001,2021_May_10_1040,list_pa,2021.1.4,60.08586269757121,
,,8,4,0,4,0,,,,,0,22,22,22,,,None,None,,001,2021_May_10_1040,list_pa,2021.1.4,60.08586269757121,
,,7,4,0,4,0,,,,,0,23,23,23,,,None,None,,001,2021_May_10_1040,list_pa,2021.1.4,60.08586269757121,
,,6,4,0,4,0,,,,,0,24,24,24,,,None,None,,001,2021_May_10_1040,list_pa,2021.1.4,60.08586269757121,
,,5,4,0,4,0,,,,,0,25,25,25,,,None,None,,001,2021_May_10_1040,list_pa,2021.1.4,60.08586269757121,
,,4,4,0,4,0,,,,,0,26,26,26,,,None,None,,001,2021_May_10_1040,list_pa,2021.1.4,60.08586269757121,
,,3,4,0,4,0,,,,,0,27,27,27,,,None,None,,001,2021_May_10_1040,list_pa,2021.1.4,60.08586269757121,
,,2,4,0,4,0,,,,,0,28,28,28,,,None,None,,001,2021_May_10_1040,list_pa,2021.1.4,60.08586269757121,
,,1,4,0,4,0,,,,,0,29,29,29,,,None,None,,001,2021_May_10_1040,list_pa,2021.1.4,60.08586269757121,
,,0,4,0,4,0,,,,,0,30,30,30,,,None,None,,001,2021_May_10_1040,list_pa,2021.1.4,60.08586269757121,
,,,4,0,4,0,,,,,,,,,,,,,,001,2021_May_10_1040,list_pa,2021.1.4,60.08586269757121,
