word_stimuli,isi,countdown,trials.thisRepN,trials.thisTrialN,trials.thisN,trials.thisIndex,trial_loop.thisRepN,trial_loop.thisTrialN,trial_loop.thisN,trial_loop.thisIndex,trials_2.thisRepN,trials_2.thisTrialN,trials_2.thisN,trials_2.thisIndex,sound_exposure.started,sound_exposure.stopped,text.started,text.stopped,participant,session,date,expName,psychopyVersion,frameRate,
sounds/gauche.ogg,0.7,,0,0,0,0,0,0,0,2,,,,,28.01126473000186,None,,,,001,2021_May_04_1127,list_pa,2021.1.4,59.76936198755312,
sounds/droite.ogg,0.7,,0,0,0,0,0,1,1,27,,,,,29.512474630003272,28.827194500001497,,,,001,2021_May_04_1127,list_pa,2021.1.4,59.76936198755312,
sounds/gauche.ogg,0.7,,0,0,0,0,0,2,2,10,,,,,31.01244783000293,None,,,,001,2021_May_04_1127,list_pa,2021.1.4,59.76936198755312,
sounds/gauche.ogg,0.7,,0,0,0,0,0,3,3,14,,,,,32.51338362999813,31.82853040000191,,,,001,2021_May_04_1127,list_pa,2021.1.4,59.76936198755312,
sounds/gauche.ogg,0.7,,0,0,0,0,0,4,4,5,,,,,34.01325023000099,33.328417400000035,,,,001,2021_May_04_1127,list_pa,2021.1.4,59.76936198755312,
sounds/droite.ogg,0.7,,0,0,0,0,0,5,5,37,,,,,35.513454429998816,None,,,,001,2021_May_04_1127,list_pa,2021.1.4,59.76936198755312,
sounds/gauche.ogg,0.7,,0,0,0,0,0,6,6,18,,,,,37.03013013000309,None,,,,001,2021_May_04_1127,list_pa,2021.1.4,59.76936198755312,
sounds/droite.ogg,0.7,,0,0,0,0,0,7,7,28,,,,,38.53091623000073,37.846007699998154,,,,001,2021_May_04_1127,list_pa,2021.1.4,59.76936198755312,
sounds/gauche.ogg,0.7,,0,0,0,0,0,8,8,0,,,,,40.03089823000191,39.34642410000379,,,,001,2021_May_04_1127,list_pa,2021.1.4,59.76936198755312,
sounds/droite.ogg,0.7,,0,0,0,0,0,9,9,33,,,,,41.53130053000204,40.84648439999728,,,,001,2021_May_04_1127,list_pa,2021.1.4,59.76936198755312,
sounds/gauche.ogg,0.7,,0,0,0,0,0,10,10,13,,,,,43.03165243000403,42.34659069999907,,,,001,2021_May_04_1127,list_pa,2021.1.4,59.76936198755312,
sounds/droite.ogg,0.7,,0,0,0,0,0,11,11,35,,,,,44.531591730000216,43.84660569999687,,,,001,2021_May_04_1127,list_pa,2021.1.4,59.76936198755312,
sounds/droite.ogg,0.7,,0,0,0,0,0,12,12,31,,,,,46.03212562999833,45.3461415999991,,,,001,2021_May_04_1127,list_pa,2021.1.4,59.76936198755312,
sounds/droite.ogg,0.7,,0,0,0,0,0,13,13,45,,,,,47.53262033000355,46.84811350000382,,,,001,2021_May_04_1127,list_pa,2021.1.4,59.76936198755312,
sounds/droite.ogg,0.7,,0,0,0,0,0,14,14,34,,,,,49.03275673000171,48.348141499998746,,,,001,2021_May_04_1127,list_pa,2021.1.4,59.76936198755312,
sounds/droite.ogg,0.7,,0,0,0,0,0,15,15,42,,,,,50.533690029999704,49.84813340000255,,,,001,2021_May_04_1127,list_pa,2021.1.4,59.76936198755312,
sounds/droite.ogg,0.7,,0,0,0,0,0,16,16,39,,,,,52.050583630004255,None,,,,001,2021_May_04_1127,list_pa,2021.1.4,59.76936198755312,
sounds/gauche.ogg,0.7,,0,0,0,0,0,17,17,3,,,,,53.5502613300021,None,,,,001,2021_May_04_1127,list_pa,2021.1.4,59.76936198755312,
sounds/droite.ogg,0.7,,0,0,0,0,0,18,18,41,,,,,55.050500230002214,54.36578050000389,,,,001,2021_May_04_1127,list_pa,2021.1.4,59.76936198755312,
sounds/gauche.ogg,0.7,,0,0,0,0,0,19,19,23,,,,,56.55065603000257,55.866076799997245,,,,001,2021_May_04_1127,list_pa,2021.1.4,59.76936198755312,
sounds/gauche.ogg,0.7,,0,0,0,0,0,20,20,17,,,,,58.05098293000337,57.366518100003304,,,,001,2021_May_04_1127,list_pa,2021.1.4,59.76936198755312,
sounds/gauche.ogg,0.7,,0,0,0,0,0,21,21,7,,,,,59.551592829998114,58.86632079999981,,,,001,2021_May_04_1127,list_pa,2021.1.4,59.76936198755312,
sounds/droite.ogg,0.7,,0,0,0,0,0,22,22,26,,,,,61.05242902999889,60.366932500000985,,,,001,2021_May_04_1127,list_pa,2021.1.4,59.76936198755312,
sounds/droite.ogg,0.7,,0,0,0,0,0,23,23,29,,,,,62.55271893000172,61.867295099997136,,,,001,2021_May_04_1127,list_pa,2021.1.4,59.76936198755312,
sounds/droite.ogg,0.7,,0,0,0,0,0,24,24,32,,,,,64.05261832999967,63.36755750000157,,,,001,2021_May_04_1127,list_pa,2021.1.4,59.76936198755312,
sounds/gauche.ogg,0.7,,0,0,0,0,0,25,25,8,,,,,65.55294453000242,64.8679884000012,,,,001,2021_May_04_1127,list_pa,2021.1.4,59.76936198755312,
sounds/gauche.ogg,0.7,,0,0,0,0,0,26,26,9,,,,,67.05322723000135,66.36864510000305,,,,001,2021_May_04_1127,list_pa,2021.1.4,59.76936198755312,
sounds/gauche.ogg,0.7,,0,0,0,0,0,27,27,16,,,,,68.55340662999951,67.86891759999708,,,,001,2021_May_04_1127,list_pa,2021.1.4,59.76936198755312,
sounds/gauche.ogg,0.7,,0,0,0,0,0,28,28,20,,,,,70.05315643000067,None,,,,001,2021_May_04_1127,list_pa,2021.1.4,59.76936198755312,
sounds/gauche.ogg,0.7,,0,0,0,0,0,29,29,6,,,,,71.55405712999782,None,,,,001,2021_May_04_1127,list_pa,2021.1.4,59.76936198755312,
sounds/droite.ogg,0.7,,0,0,0,0,0,30,30,30,,,,,73.05534743000025,72.36924610000278,,,,001,2021_May_04_1127,list_pa,2021.1.4,59.76936198755312,
sounds/droite.ogg,0.7,,0,0,0,0,0,31,31,44,,,,,74.55529172999813,73.86950149999757,,,,001,2021_May_04_1127,list_pa,2021.1.4,59.76936198755312,
sounds/gauche.ogg,0.7,,0,0,0,0,0,32,32,12,,,,,76.05584363000234,75.36974020000343,,,,001,2021_May_04_1127,list_pa,2021.1.4,59.76936198755312,
sounds/gauche.ogg,0.7,,0,0,0,0,0,33,33,19,,,,,77.55523763000092,76.86971990000166,,,,001,2021_May_04_1127,list_pa,2021.1.4,59.76936198755312,
sounds/droite.ogg,0.7,,0,0,0,0,0,34,34,46,,,,,79.0556342300013,78.37106569999742,,,,001,2021_May_04_1127,list_pa,2021.1.4,59.76936198755312,
sounds/droite.ogg,0.7,,0,0,0,0,0,35,35,47,,,,,80.55571322999894,79.87058309999702,,,,001,2021_May_04_1127,list_pa,2021.1.4,59.76936198755312,
sounds/gauche.ogg,0.7,,0,0,0,0,0,36,36,24,,,,,82.05632562999817,81.37096439999732,,,,001,2021_May_04_1127,list_pa,2021.1.4,59.76936198755312,
sounds/droite.ogg,0.7,,0,0,0,0,0,37,37,48,,,,,83.55682722999772,82.87138750000304,,,,001,2021_May_04_1127,list_pa,2021.1.4,59.76936198755312,
sounds/gauche.ogg,0.7,,0,0,0,0,0,38,38,15,,,,,85.05662693000049,84.37171020000096,,,,001,2021_May_04_1127,list_pa,2021.1.4,59.76936198755312,
sounds/gauche.ogg,0.7,,0,0,0,0,0,39,39,11,,,,,86.55708483000198,85.8713618000038,,,,001,2021_May_04_1127,list_pa,2021.1.4,59.76936198755312,
sounds/gauche.ogg,0.7,,0,0,0,0,0,40,40,21,,,,,88.05689573000272,None,,,,001,2021_May_04_1127,list_pa,2021.1.4,59.76936198755312,
sounds/droite.ogg,0.7,,0,0,0,0,0,41,41,25,,,,,89.55795492999896,88.87234529999841,,,,001,2021_May_04_1127,list_pa,2021.1.4,59.76936198755312,
sounds/gauche.ogg,0.7,,0,0,0,0,0,42,42,1,,,,,91.05820502999704,90.37302449999697,,,,001,2021_May_04_1127,list_pa,2021.1.4,59.76936198755312,
sounds/droite.ogg,0.7,,0,0,0,0,0,43,43,38,,,,,92.55791272999777,None,,,,001,2021_May_04_1127,list_pa,2021.1.4,59.76936198755312,
sounds/gauche.ogg,0.7,,0,0,0,0,0,44,44,4,,,,,94.05831853000272,93.37425990000338,,,,001,2021_May_04_1127,list_pa,2021.1.4,59.76936198755312,
sounds/gauche.ogg,0.7,,0,0,0,0,0,45,45,22,,,,,95.55909022999985,94.87428109999746,,,,001,2021_May_04_1127,list_pa,2021.1.4,59.76936198755312,
sounds/droite.ogg,0.7,,0,0,0,0,0,46,46,40,,,,,97.05891263000085,96.37417280000227,,,,001,2021_May_04_1127,list_pa,2021.1.4,59.76936198755312,
sounds/droite.ogg,0.7,,0,0,0,0,0,47,47,36,,,,,98.56002583000081,97.87461830000393,,,,001,2021_May_04_1127,list_pa,2021.1.4,59.76936198755312,
sounds/droite.ogg,0.7,,0,0,0,0,0,48,48,49,,,,,100.05915433000045,99.37491730000329,,,,001,2021_May_04_1127,list_pa,2021.1.4,59.76936198755312,
sounds/droite.ogg,0.7,,0,0,0,0,0,49,49,43,,,,,101.5600891300026,100.8754110000009,,,,001,2021_May_04_1127,list_pa,2021.1.4,59.76936198755312,
,,30,0,0,0,0,,,,,0,0,0,0,,,102.4674576000034,None,,001,2021_May_04_1127,list_pa,2021.1.4,59.76936198755312,
,,29,0,0,0,0,,,,,0,1,1,1,,,103.39243040000292,None,,001,2021_May_04_1127,list_pa,2021.1.4,59.76936198755312,
,,28,0,0,0,0,,,,,0,2,2,2,,,104.39288759999909,None,,001,2021_May_04_1127,list_pa,2021.1.4,59.76936198755312,
,,27,0,0,0,0,,,,,0,3,3,3,,,105.39282960000128,None,,001,2021_May_04_1127,list_pa,2021.1.4,59.76936198755312,
,,26,0,0,0,0,,,,,0,4,4,4,,,106.39292630000273,None,,001,2021_May_04_1127,list_pa,2021.1.4,59.76936198755312,
,,25,0,0,0,0,,,,,0,5,5,5,,,107.39320720000251,None,,001,2021_May_04_1127,list_pa,2021.1.4,59.76936198755312,
,,24,0,0,0,0,,,,,0,6,6,6,,,108.39333299999998,None,,001,2021_May_04_1127,list_pa,2021.1.4,59.76936198755312,
,,23,0,0,0,0,,,,,0,7,7,7,,,109.3939332000009,None,,001,2021_May_04_1127,list_pa,2021.1.4,59.76936198755312,
,,22,0,0,0,0,,,,,0,8,8,8,,,110.39378199999919,None,,001,2021_May_04_1127,list_pa,2021.1.4,59.76936198755312,
,,21,0,0,0,0,,,,,0,9,9,9,,,111.3943569999974,None,,001,2021_May_04_1127,list_pa,2021.1.4,59.76936198755312,
,,20,0,0,0,0,,,,,0,10,10,10,,,112.39466810000158,None,,001,2021_May_04_1127,list_pa,2021.1.4,59.76936198755312,
,,19,0,0,0,0,,,,,0,11,11,11,,,113.39452339999843,None,,001,2021_May_04_1127,list_pa,2021.1.4,59.76936198755312,
,,18,0,0,0,0,,,,,0,12,12,12,,,114.39438920000248,None,,001,2021_May_04_1127,list_pa,2021.1.4,59.76936198755312,
,,17,0,0,0,0,,,,,0,13,13,13,,,115.39513109999825,None,,001,2021_May_04_1127,list_pa,2021.1.4,59.76936198755312,
,,16,0,0,0,0,,,,,0,14,14,14,,,116.39503330000298,None,,001,2021_May_04_1127,list_pa,2021.1.4,59.76936198755312,
,,15,0,0,0,0,,,,,0,15,15,15,,,117.37842470000032,None,,001,2021_May_04_1127,list_pa,2021.1.4,59.76936198755312,
,,14,0,0,0,0,,,,,0,16,16,16,,,118.3787691999969,None,,001,2021_May_04_1127,list_pa,2021.1.4,59.76936198755312,
,,13,0,0,0,0,,,,,0,17,17,17,,,119.37931689999823,None,,001,2021_May_04_1127,list_pa,2021.1.4,59.76936198755312,
,,12,0,0,0,0,,,,,0,18,18,18,,,120.37931209999806,None,,001,2021_May_04_1127,list_pa,2021.1.4,59.76936198755312,
,,11,0,0,0,0,,,,,0,19,19,19,,,121.37899050000124,None,,001,2021_May_04_1127,list_pa,2021.1.4,59.76936198755312,
,,10,0,0,0,0,,,,,0,20,20,20,,,122.37934269999823,None,,001,2021_May_04_1127,list_pa,2021.1.4,59.76936198755312,
,,9,0,0,0,0,,,,,0,21,21,21,,,123.37977200000023,None,,001,2021_May_04_1127,list_pa,2021.1.4,59.76936198755312,
,,8,0,0,0,0,,,,,0,22,22,22,,,124.3795558999991,None,,001,2021_May_04_1127,list_pa,2021.1.4,59.76936198755312,
,,7,0,0,0,0,,,,,0,23,23,23,,,125.37972379999701,None,,001,2021_May_04_1127,list_pa,2021.1.4,59.76936198755312,
,,6,0,0,0,0,,,,,0,24,24,24,,,126.37926600000355,None,,001,2021_May_04_1127,list_pa,2021.1.4,59.76936198755312,
,,5,0,0,0,0,,,,,0,25,25,25,,,127.37983520000125,None,,001,2021_May_04_1127,list_pa,2021.1.4,59.76936198755312,
,,4,0,0,0,0,,,,,0,26,26,26,,,128.38056340000185,None,,001,2021_May_04_1127,list_pa,2021.1.4,59.76936198755312,
,,3,0,0,0,0,,,,,0,27,27,27,,,129.3813678000006,None,,001,2021_May_04_1127,list_pa,2021.1.4,59.76936198755312,
,,2,0,0,0,0,,,,,0,28,28,28,,,130.38132710000355,None,,001,2021_May_04_1127,list_pa,2021.1.4,59.76936198755312,
,,1,0,0,0,0,,,,,0,29,29,29,,,131.38136539999687,None,,001,2021_May_04_1127,list_pa,2021.1.4,59.76936198755312,
,,0,0,0,0,0,,,,,0,30,30,30,,,132.38009189999866,None,,001,2021_May_04_1127,list_pa,2021.1.4,59.76936198755312,
,,,0,0,0,0,,,,,,,,,,,,,,001,2021_May_04_1127,list_pa,2021.1.4,59.76936198755312,
sounds/gauche.ogg,0.7,,1,0,1,0,0,0,0,2,,,,,134.10015583000205,None,,,,001,2021_May_04_1127,list_pa,2021.1.4,59.76936198755312,
sounds/gauche.ogg,0.7,,1,0,1,0,0,1,1,3,,,,,135.60021382999986,134.91561760000332,,,,001,2021_May_04_1127,list_pa,2021.1.4,59.76936198755312,
sounds/gauche.ogg,0.7,,1,0,1,0,0,2,2,15,,,,,137.1006724299994,136.41624469999806,,,,001,2021_May_04_1127,list_pa,2021.1.4,59.76936198755312,
sounds/droite.ogg,0.7,,1,0,1,0,0,3,3,38,,,,,138.60106443000114,137.9158621000024,,,,001,2021_May_04_1127,list_pa,2021.1.4,59.76936198755312,
sounds/droite.ogg,0.7,,1,0,1,0,0,4,4,30,,,,,140.10127943000117,139.41683529999864,,,,001,2021_May_04_1127,list_pa,2021.1.4,59.76936198755312,
sounds/gauche.ogg,0.7,,1,0,1,0,0,5,5,16,,,,,141.60157083000087,140.91671610000049,,,,001,2021_May_04_1127,list_pa,2021.1.4,59.76936198755312,
sounds/droite.ogg,0.7,,1,0,1,0,0,6,6,44,,,,,143.10208652999864,142.4162686999989,,,,001,2021_May_04_1127,list_pa,2021.1.4,59.76936198755312,
sounds/gauche.ogg,0.7,,1,0,1,0,0,7,7,14,,,,,144.60239792999784,143.9173815000031,,,,001,2021_May_04_1127,list_pa,2021.1.4,59.76936198755312,
sounds/droite.ogg,0.7,,1,0,1,0,0,8,8,46,,,,,146.10229852999765,145.41742330000125,,,,001,2021_May_04_1127,list_pa,2021.1.4,59.76936198755312,
sounds/droite.ogg,0.7,,1,0,1,0,0,9,9,37,,,,,147.60349292999746,146.91763830000127,,,,001,2021_May_04_1127,list_pa,2021.1.4,59.76936198755312,
sounds/droite.ogg,0.7,,1,0,1,0,0,10,10,43,,,,,149.10281973000093,None,,,,001,2021_May_04_1127,list_pa,2021.1.4,59.76936198755312,
sounds/gauche.ogg,0.7,,1,0,1,0,0,11,11,8,,,,,150.60404262999947,149.91887059999863,,,,001,2021_May_04_1127,list_pa,2021.1.4,59.76936198755312,
sounds/droite.ogg,0.7,,1,0,1,0,0,12,12,39,,,,,152.10393172999903,151.41909889999806,,,,001,2021_May_04_1127,list_pa,2021.1.4,59.76936198755312,
sounds/gauche.ogg,0.7,,1,0,1,0,0,13,13,5,,,,,153.60423282999983,152.91897130000143,,,,001,2021_May_04_1127,list_pa,2021.1.4,59.76936198755312,
sounds/gauche.ogg,0.7,,1,0,1,0,0,14,14,7,,,,,155.10442842999765,154.41925410000113,,,,001,2021_May_04_1127,list_pa,2021.1.4,59.76936198755312,
sounds/gauche.ogg,0.7,,1,0,1,0,0,15,15,10,,,,,156.60486103000295,155.91937429999962,,,,001,2021_May_04_1127,list_pa,2021.1.4,59.76936198755312,
sounds/droite.ogg,0.7,,1,0,1,0,0,16,16,48,,,,,158.10574023000373,157.41970330000186,,,,001,2021_May_04_1127,list_pa,2021.1.4,59.76936198755312,
sounds/gauche.ogg,0.7,,1,0,1,0,0,17,17,4,,,,,159.6063081299988,158.91994900000282,,,,001,2021_May_04_1127,list_pa,2021.1.4,59.76936198755312,
sounds/droite.ogg,0.7,,1,0,1,0,0,18,18,36,,,,,161.10557122999745,160.42059380000137,,,,001,2021_May_04_1127,list_pa,2021.1.4,59.76936198755312,
sounds/gauche.ogg,0.7,,1,0,1,0,0,19,19,12,,,,,162.6059579300025,161.92047889999958,,,,001,2021_May_04_1127,list_pa,2021.1.4,59.76936198755312,
sounds/gauche.ogg,0.7,,1,0,1,0,0,20,20,9,,,,,164.1062165299998,163.42114610000135,,,,001,2021_May_04_1127,list_pa,2021.1.4,59.76936198755312,
sounds/droite.ogg,0.7,,1,0,1,0,0,21,21,32,,,,,165.60638993000322,164.9216235999993,,,,001,2021_May_04_1127,list_pa,2021.1.4,59.76936198755312,
sounds/gauche.ogg,0.7,,1,0,1,0,0,22,22,17,,,,,167.10657053000324,None,,,,001,2021_May_04_1127,list_pa,2021.1.4,59.76936198755312,
sounds/droite.ogg,0.7,,1,0,1,0,0,23,23,33,,,,,168.6072675299991,167.92212680000375,,,,001,2021_May_04_1127,list_pa,2021.1.4,59.76936198755312,
sounds/gauche.ogg,0.7,,1,0,1,0,0,24,24,1,,,,,170.10760682999972,169.42277040000045,,,,001,2021_May_04_1127,list_pa,2021.1.4,59.76936198755312,
sounds/droite.ogg,0.7,,1,0,1,0,0,25,25,29,,,,,171.6075419300003,170.9225721000039,,,,001,2021_May_04_1127,list_pa,2021.1.4,59.76936198755312,
sounds/gauche.ogg,0.7,,1,0,1,0,0,26,26,23,,,,,173.10775572999847,172.42335979999916,,,,001,2021_May_04_1127,list_pa,2021.1.4,59.76936198755312,
sounds/droite.ogg,0.7,,1,0,1,0,0,27,27,35,,,,,174.60805153000257,173.92342179999832,,,,001,2021_May_04_1127,list_pa,2021.1.4,59.76936198755312,
sounds/gauche.ogg,0.7,,1,0,1,0,0,28,28,11,,,,,176.1082812299981,175.42335399999865,,,,001,2021_May_04_1127,list_pa,2021.1.4,59.76936198755312,
sounds/gauche.ogg,0.7,,1,0,1,0,0,29,29,0,,,,,177.6092050300038,176.9240503999972,,,,001,2021_May_04_1127,list_pa,2021.1.4,59.76936198755312,
sounds/droite.ogg,0.7,,1,0,1,0,0,30,30,31,,,,,179.1091340300016,178.42428949999885,,,,001,2021_May_04_1127,list_pa,2021.1.4,59.76936198755312,
sounds/gauche.ogg,0.7,,1,0,1,0,0,31,31,22,,,,,180.60985402999796,179.9246803999995,,,,001,2021_May_04_1127,list_pa,2021.1.4,59.76936198755312,
sounds/gauche.ogg,0.7,,1,0,1,0,0,32,32,13,,,,,182.1106983300022,181.4249415000013,,,,001,2021_May_04_1127,list_pa,2021.1.4,59.76936198755312,
sounds/droite.ogg,0.7,,1,0,1,0,0,33,33,25,,,,,183.61023943000038,None,,,,001,2021_May_04_1127,list_pa,2021.1.4,59.76936198755312,
sounds/droite.ogg,0.7,,1,0,1,0,0,34,34,40,,,,,185.11029172999844,184.42546479999874,,,,001,2021_May_04_1127,list_pa,2021.1.4,59.76936198755312,
sounds/droite.ogg,0.7,,1,0,1,0,0,35,35,42,,,,,186.61067523000094,185.92589179999777,,,,001,2021_May_04_1127,list_pa,2021.1.4,59.76936198755312,
sounds/gauche.ogg,0.7,,1,0,1,0,0,36,36,6,,,,,188.1107913299973,187.42582309999852,,,,001,2021_May_04_1127,list_pa,2021.1.4,59.76936198755312,
sounds/gauche.ogg,0.7,,1,0,1,0,0,37,37,18,,,,,189.61185962999735,188.92682629999763,,,,001,2021_May_04_1127,list_pa,2021.1.4,59.76936198755312,
sounds/gauche.ogg,0.7,,1,0,1,0,0,38,38,19,,,,,191.11224433000172,190.42659060000005,,,,001,2021_May_04_1127,list_pa,2021.1.4,59.76936198755312,
sounds/droite.ogg,0.7,,1,0,1,0,0,39,39,49,,,,,192.61175443000394,191.9273785999976,,,,001,2021_May_04_1127,list_pa,2021.1.4,59.76936198755312,
sounds/gauche.ogg,0.7,,1,0,1,0,0,40,40,20,,,,,194.1127855299972,193.42752250000194,,,,001,2021_May_04_1127,list_pa,2021.1.4,59.76936198755312,
sounds/droite.ogg,0.7,,1,0,1,0,0,41,41,41,,,,,195.61269903000067,194.92736950000108,,,,001,2021_May_04_1127,list_pa,2021.1.4,59.76936198755312,
sounds/droite.ogg,0.7,,1,0,1,0,0,42,42,45,,,,,197.1135886300006,196.42867529999785,,,,001,2021_May_04_1127,list_pa,2021.1.4,59.76936198755312,
sounds/droite.ogg,0.7,,1,0,1,0,0,43,43,26,,,,,198.6136761299975,None,,,,001,2021_May_04_1127,list_pa,2021.1.4,59.76936198755312,
sounds/droite.ogg,0.7,,1,0,1,0,0,44,44,28,,,,,200.1136327300017,199.42832510000153,,,,001,2021_May_04_1127,list_pa,2021.1.4,59.76936198755312,
sounds/droite.ogg,0.7,,1,0,1,0,0,45,45,47,,,,,201.61378383000266,None,,,,001,2021_May_04_1127,list_pa,2021.1.4,59.76936198755312,
sounds/gauche.ogg,0.7,,1,0,1,0,0,46,46,24,,,,,203.1143043300006,None,,,,001,2021_May_04_1127,list_pa,2021.1.4,59.76936198755312,
sounds/gauche.ogg,0.7,,1,0,1,0,0,47,47,21,,,,,204.6146237300025,203.9292215000023,,,,001,2021_May_04_1127,list_pa,2021.1.4,59.76936198755312,
sounds/droite.ogg,0.7,,1,0,1,0,0,48,48,34,,,,,206.11508662999842,None,,,,001,2021_May_04_1127,list_pa,2021.1.4,59.76936198755312,
sounds/droite.ogg,0.7,,1,0,1,0,0,49,49,27,,,,,207.61525282999793,206.92991520000214,,,,001,2021_May_04_1127,list_pa,2021.1.4,59.76936198755312,
,,30,1,0,1,0,,,,,0,0,0,0,,,208.44571400000132,None,,001,2021_May_04_1127,list_pa,2021.1.4,59.76936198755312,
,,29,1,0,1,0,,,,,0,1,1,1,,,209.44766700000037,None,,001,2021_May_04_1127,list_pa,2021.1.4,59.76936198755312,
,,28,1,0,1,0,,,,,0,2,2,2,,,210.44762479999918,None,,001,2021_May_04_1127,list_pa,2021.1.4,59.76936198755312,
,,27,1,0,1,0,,,,,0,3,3,3,,,211.4481863999972,None,,001,2021_May_04_1127,list_pa,2021.1.4,59.76936198755312,
,,26,1,0,1,0,,,,,0,4,4,4,,,212.4480016000016,None,,001,2021_May_04_1127,list_pa,2021.1.4,59.76936198755312,
,,25,1,0,1,0,,,,,0,5,5,5,,,213.4483091000002,None,,001,2021_May_04_1127,list_pa,2021.1.4,59.76936198755312,
,,24,1,0,1,0,,,,,0,6,6,6,,,214.44811689999915,None,,001,2021_May_04_1127,list_pa,2021.1.4,59.76936198755312,
,,23,1,0,1,0,,,,,0,7,7,7,,,215.44908959999884,None,,001,2021_May_04_1127,list_pa,2021.1.4,59.76936198755312,
,,22,1,0,1,0,,,,,0,8,8,8,,,216.44906410000112,None,,001,2021_May_04_1127,list_pa,2021.1.4,59.76936198755312,
,,21,1,0,1,0,,,,,0,9,9,9,,,217.44907020000392,None,,001,2021_May_04_1127,list_pa,2021.1.4,59.76936198755312,
,,20,1,0,1,0,,,,,0,10,10,10,,,218.4489575999978,None,,001,2021_May_04_1127,list_pa,2021.1.4,59.76936198755312,
,,19,1,0,1,0,,,,,0,11,11,11,,,219.44922889999725,None,,001,2021_May_04_1127,list_pa,2021.1.4,59.76936198755312,
,,18,1,0,1,0,,,,,0,12,12,12,,,220.44931160000124,None,,001,2021_May_04_1127,list_pa,2021.1.4,59.76936198755312,
,,17,1,0,1,0,,,,,0,13,13,13,,,221.44948840000143,None,,001,2021_May_04_1127,list_pa,2021.1.4,59.76936198755312,
,,16,1,0,1,0,,,,,0,14,14,14,,,222.44952660000126,None,,001,2021_May_04_1127,list_pa,2021.1.4,59.76936198755312,
,,15,1,0,1,0,,,,,0,15,15,15,,,223.44987689999834,None,,001,2021_May_04_1127,list_pa,2021.1.4,59.76936198755312,
,,14,1,0,1,0,,,,,0,16,16,16,,,224.45037890000094,None,,001,2021_May_04_1127,list_pa,2021.1.4,59.76936198755312,
,,13,1,0,1,0,,,,,0,17,17,17,,,225.4501667000004,None,,001,2021_May_04_1127,list_pa,2021.1.4,59.76936198755312,
,,12,1,0,1,0,,,,,0,18,18,18,,,226.45039920000272,None,,001,2021_May_04_1127,list_pa,2021.1.4,59.76936198755312,
,,11,1,0,1,0,,,,,0,19,19,19,,,227.45058260000224,None,,001,2021_May_04_1127,list_pa,2021.1.4,59.76936198755312,
,,10,1,0,1,0,,,,,0,20,20,20,,,228.4347362999979,None,,001,2021_May_04_1127,list_pa,2021.1.4,59.76936198755312,
,,9,1,0,1,0,,,,,0,21,21,21,,,229.43459900000016,None,,001,2021_May_04_1127,list_pa,2021.1.4,59.76936198755312,
,,8,1,0,1,0,,,,,0,22,22,22,,,230.43513859999803,None,,001,2021_May_04_1127,list_pa,2021.1.4,59.76936198755312,
,,7,1,0,1,0,,,,,0,23,23,23,,,231.43429099999776,None,,001,2021_May_04_1127,list_pa,2021.1.4,59.76936198755312,
,,6,1,0,1,0,,,,,0,24,24,24,,,232.4350845000008,None,,001,2021_May_04_1127,list_pa,2021.1.4,59.76936198755312,
,,5,1,0,1,0,,,,,0,25,25,25,,,233.43554320000112,None,,001,2021_May_04_1127,list_pa,2021.1.4,59.76936198755312,
,,4,1,0,1,0,,,,,0,26,26,26,,,234.43571240000165,None,,001,2021_May_04_1127,list_pa,2021.1.4,59.76936198755312,
,,3,1,0,1,0,,,,,0,27,27,27,,,235.43625050000264,None,,001,2021_May_04_1127,list_pa,2021.1.4,59.76936198755312,
,,2,1,0,1,0,,,,,0,28,28,28,,,236.4364624000009,None,,001,2021_May_04_1127,list_pa,2021.1.4,59.76936198755312,
,,1,1,0,1,0,,,,,0,29,29,29,,,237.43645449999894,None,,001,2021_May_04_1127,list_pa,2021.1.4,59.76936198755312,
,,0,1,0,1,0,,,,,0,30,30,30,,,238.4367848000038,None,,001,2021_May_04_1127,list_pa,2021.1.4,59.76936198755312,
,,,1,0,1,0,,,,,,,,,,,,,,001,2021_May_04_1127,list_pa,2021.1.4,59.76936198755312,
sounds/gauche.ogg,0.7,,2,0,2,0,0,0,0,13,,,,,240.15507483000403,None,,,,001,2021_May_04_1127,list_pa,2021.1.4,59.76936198755312,
sounds/droite.ogg,0.7,,2,0,2,0,0,1,1,48,,,,,241.65545493000246,None,,,,001,2021_May_04_1127,list_pa,2021.1.4,59.76936198755312,
sounds/gauche.ogg,0.7,,2,0,2,0,0,2,2,22,,,,,243.15564873000113,242.47028560000035,,,,001,2021_May_04_1127,list_pa,2021.1.4,59.76936198755312,
sounds/droite.ogg,0.7,,2,0,2,0,0,3,3,33,,,,,244.65610573000305,243.97104440000112,,,,001,2021_May_04_1127,list_pa,2021.1.4,59.76936198755312,
sounds/gauche.ogg,0.7,,2,0,2,0,0,4,4,23,,,,,246.15656633000327,245.47099000000162,,,,001,2021_May_04_1127,list_pa,2021.1.4,59.76936198755312,
sounds/droite.ogg,0.7,,2,0,2,0,0,5,5,46,,,,,247.6563972300035,246.97148050000396,,,,001,2021_May_04_1127,list_pa,2021.1.4,59.76936198755312,
sounds/droite.ogg,0.7,,2,0,2,0,0,6,6,42,,,,,249.15670573000244,248.47209170000133,,,,001,2021_May_04_1127,list_pa,2021.1.4,59.76936198755312,
sounds/gauche.ogg,0.7,,2,0,2,0,0,7,7,9,,,,,250.65742693000067,249.97209100000327,,,,001,2021_May_04_1127,list_pa,2021.1.4,59.76936198755312,
sounds/droite.ogg,0.7,,2,0,2,0,0,8,8,45,,,,,252.1574246299977,251.47263499999826,,,,001,2021_May_04_1127,list_pa,2021.1.4,59.76936198755312,
sounds/droite.ogg,0.7,,2,0,2,0,0,9,9,38,,,,,253.6572744300036,252.97288590000244,,,,001,2021_May_04_1127,list_pa,2021.1.4,59.76936198755312,
sounds/droite.ogg,0.7,,2,0,2,0,0,10,10,41,,,,,255.157765630004,254.47294220000185,,,,001,2021_May_04_1127,list_pa,2021.1.4,59.76936198755312,
sounds/gauche.ogg,0.7,,2,0,2,0,0,11,11,19,,,,,256.6580660299995,255.9734576999981,,,,001,2021_May_04_1127,list_pa,2021.1.4,59.76936198755312,
sounds/droite.ogg,0.7,,2,0,2,0,0,12,12,30,,,,,258.15833973000264,257.47404059999826,,,,001,2021_May_04_1127,list_pa,2021.1.4,59.76936198755312,
sounds/gauche.ogg,0.7,,2,0,2,0,0,13,13,12,,,,,259.65912533000375,258.9742350000015,,,,001,2021_May_04_1127,list_pa,2021.1.4,59.76936198755312,
sounds/gauche.ogg,0.7,,2,0,2,0,0,14,14,15,,,,,261.15956743000135,260.4743634999977,,,,001,2021_May_04_1127,list_pa,2021.1.4,59.76936198755312,
sounds/gauche.ogg,0.7,,2,0,2,0,0,15,15,11,,,,,262.6592609300031,None,,,,001,2021_May_04_1127,list_pa,2021.1.4,59.76936198755312,
sounds/gauche.ogg,0.7,,2,0,2,0,0,16,16,16,,,,,264.15943173000124,263.4749692999976,,,,001,2021_May_04_1127,list_pa,2021.1.4,59.76936198755312,
sounds/gauche.ogg,0.7,,2,0,2,0,0,17,17,1,,,,,265.66021792999965,264.97532740000315,,,,001,2021_May_04_1127,list_pa,2021.1.4,59.76936198755312,
sounds/droite.ogg,0.7,,2,0,2,0,0,18,18,35,,,,,267.1601861299976,266.4758565000011,,,,001,2021_May_04_1127,list_pa,2021.1.4,59.76936198755312,
sounds/gauche.ogg,0.7,,2,0,2,0,0,19,19,20,,,,,268.6611793300006,267.97587110000313,,,,001,2021_May_04_1127,list_pa,2021.1.4,59.76936198755312,
sounds/gauche.ogg,0.7,,2,0,2,0,0,20,20,8,,,,,270.16120143000154,269.476218900003,,,,001,2021_May_04_1127,list_pa,2021.1.4,59.76936198755312,
sounds/droite.ogg,0.7,,2,0,2,0,0,21,21,36,,,,,271.66138352999843,270.97546780000266,,,,001,2021_May_04_1127,list_pa,2021.1.4,59.76936198755312,
sounds/gauche.ogg,0.7,,2,0,2,0,0,22,22,18,,,,,273.17797472999956,None,,,,001,2021_May_04_1127,list_pa,2021.1.4,59.76936198755312,
sounds/gauche.ogg,0.7,,2,0,2,0,0,23,23,24,,,,,274.6782982300036,273.99382550000155,,,,001,2021_May_04_1127,list_pa,2021.1.4,59.76936198755312,
sounds/droite.ogg,0.7,,2,0,2,0,0,24,24,32,,,,,276.1793499300009,275.49410609999904,,,,001,2021_May_04_1127,list_pa,2021.1.4,59.76936198755312,
sounds/droite.ogg,0.7,,2,0,2,0,0,25,25,28,,,,,277.6789559299985,None,,,,001,2021_May_04_1127,list_pa,2021.1.4,59.76936198755312,
sounds/droite.ogg,0.7,,2,0,2,0,0,26,26,37,,,,,279.1794218300027,278.49435610000364,,,,001,2021_May_04_1127,list_pa,2021.1.4,59.76936198755312,
sounds/droite.ogg,0.7,,2,0,2,0,0,27,27,25,,,,,280.68019432999864,279.99525050000375,,,,001,2021_May_04_1127,list_pa,2021.1.4,59.76936198755312,
sounds/droite.ogg,0.7,,2,0,2,0,0,28,28,34,,,,,282.1800598300004,None,,,,001,2021_May_04_1127,list_pa,2021.1.4,59.76936198755312,
sounds/gauche.ogg,0.7,,2,0,2,0,0,29,29,3,,,,,283.68029952999933,282.99591650000366,,,,001,2021_May_04_1127,list_pa,2021.1.4,59.76936198755312,
sounds/gauche.ogg,0.7,,2,0,2,0,0,30,30,2,,,,,285.180885630002,284.4964984000035,,,,001,2021_May_04_1127,list_pa,2021.1.4,59.76936198755312,
sounds/gauche.ogg,0.7,,2,0,2,0,0,31,31,6,,,,,286.6816572299984,285.99658790000103,,,,001,2021_May_04_1127,list_pa,2021.1.4,59.76936198755312,
sounds/droite.ogg,0.7,,2,0,2,0,0,32,32,47,,,,,288.18137232999726,287.4965197999991,,,,001,2021_May_04_1127,list_pa,2021.1.4,59.76936198755312,
sounds/droite.ogg,0.7,,2,0,2,0,0,33,33,43,,,,,289.6818519300039,288.9969182999994,,,,001,2021_May_04_1127,list_pa,2021.1.4,59.76936198755312,
sounds/droite.ogg,0.7,,2,0,2,0,0,34,34,40,,,,,291.1824250300022,290.4968691000031,,,,001,2021_May_04_1127,list_pa,2021.1.4,59.76936198755312,
sounds/droite.ogg,0.7,,2,0,2,0,0,35,35,29,,,,,292.6823457300023,291.99641639999754,,,,001,2021_May_04_1127,list_pa,2021.1.4,59.76936198755312,
sounds/droite.ogg,0.7,,2,0,2,0,0,36,36,49,,,,,294.1827903299971,293.4978659999979,,,,001,2021_May_04_1127,list_pa,2021.1.4,59.76936198755312,
sounds/gauche.ogg,0.7,,2,0,2,0,0,37,37,4,,,,,295.6831422299991,294.998791799997,,,,001,2021_May_04_1127,list_pa,2021.1.4,59.76936198755312,
sounds/droite.ogg,0.7,,2,0,2,0,0,38,38,26,,,,,297.1831252300006,296.49811939999927,,,,001,2021_May_04_1127,list_pa,2021.1.4,59.76936198755312,
sounds/droite.ogg,0.7,,2,0,2,0,0,39,39,31,,,,,298.6836453300028,None,,,,001,2021_May_04_1127,list_pa,2021.1.4,59.76936198755312,
sounds/gauche.ogg,0.7,,2,0,2,0,0,40,40,5,,,,,300.1838297300026,None,,,,001,2021_May_04_1127,list_pa,2021.1.4,59.76936198755312,
sounds/gauche.ogg,0.7,,2,0,2,0,0,41,41,21,,,,,301.6842314299982,None,,,,001,2021_May_04_1127,list_pa,2021.1.4,59.76936198755312,
sounds/gauche.ogg,0.7,,2,0,2,0,0,42,42,0,,,,,303.18485812999717,302.49926660000347,,,,001,2021_May_04_1127,list_pa,2021.1.4,59.76936198755312,
sounds/gauche.ogg,0.7,,2,0,2,0,0,43,43,10,,,,,304.6853366300027,303.9996549999996,,,,001,2021_May_04_1127,list_pa,2021.1.4,59.76936198755312,
sounds/droite.ogg,0.7,,2,0,2,0,0,44,44,39,,,,,306.18507432999905,305.49990499999694,,,,001,2021_May_04_1127,list_pa,2021.1.4,59.76936198755312,
sounds/gauche.ogg,0.7,,2,0,2,0,0,45,45,17,,,,,307.6859538300021,307.00026929999876,,,,001,2021_May_04_1127,list_pa,2021.1.4,59.76936198755312,
sounds/gauche.ogg,0.7,,2,0,2,0,0,46,46,7,,,,,309.1854716299975,308.5003907999999,,,,001,2021_May_04_1127,list_pa,2021.1.4,59.76936198755312,
sounds/droite.ogg,0.7,,2,0,2,0,0,47,47,44,,,,,310.68610473000155,310.00139540000237,,,,001,2021_May_04_1127,list_pa,2021.1.4,59.76936198755312,
sounds/gauche.ogg,0.7,,2,0,2,0,0,48,48,14,,,,,312.1871241300003,311.5011031000031,,,,001,2021_May_04_1127,list_pa,2021.1.4,59.76936198755312,
sounds/droite.ogg,0.7,,2,0,2,0,0,49,49,27,,,,,313.6867916300005,313.00194029999693,,,,001,2021_May_04_1127,list_pa,2021.1.4,59.76936198755312,
,,30,2,0,2,0,,,,,0,0,0,0,,,314.5177485000022,None,,001,2021_May_04_1127,list_pa,2021.1.4,59.76936198755312,
,,29,2,0,2,0,,,,,0,1,1,1,,,315.51886979999836,None,,001,2021_May_04_1127,list_pa,2021.1.4,59.76936198755312,
,,28,2,0,2,0,,,,,0,2,2,2,,,316.51914150000084,None,,001,2021_May_04_1127,list_pa,2021.1.4,59.76936198755312,
,,27,2,0,2,0,,,,,0,3,3,3,,,317.5190244999976,None,,001,2021_May_04_1127,list_pa,2021.1.4,59.76936198755312,
,,26,2,0,2,0,,,,,0,4,4,4,,,318.5011841000014,None,,001,2021_May_04_1127,list_pa,2021.1.4,59.76936198755312,
,,25,2,0,2,0,,,,,0,5,5,5,,,319.5012702000022,None,,001,2021_May_04_1127,list_pa,2021.1.4,59.76936198755312,
,,24,2,0,2,0,,,,,0,6,6,6,,,320.50140210000245,None,,001,2021_May_04_1127,list_pa,2021.1.4,59.76936198755312,
,,23,2,0,2,0,,,,,0,7,7,7,,,321.5036618000013,None,,001,2021_May_04_1127,list_pa,2021.1.4,59.76936198755312,
,,22,2,0,2,0,,,,,0,8,8,8,,,322.51985660000355,None,,001,2021_May_04_1127,list_pa,2021.1.4,59.76936198755312,
,,21,2,0,2,0,,,,,0,9,9,9,,,323.5202547000008,None,,001,2021_May_04_1127,list_pa,2021.1.4,59.76936198755312,
,,20,2,0,2,0,,,,,0,10,10,10,,,324.5204165000032,None,,001,2021_May_04_1127,list_pa,2021.1.4,59.76936198755312,
,,19,2,0,2,0,,,,,0,11,11,11,,,325.52052540000295,None,,001,2021_May_04_1127,list_pa,2021.1.4,59.76936198755312,
,,18,2,0,2,0,,,,,0,12,12,12,,,326.52078549999715,None,,001,2021_May_04_1127,list_pa,2021.1.4,59.76936198755312,
,,17,2,0,2,0,,,,,0,13,13,13,,,327.50320849999844,None,,001,2021_May_04_1127,list_pa,2021.1.4,59.76936198755312,
,,16,2,0,2,0,,,,,0,14,14,14,,,328.5213719000021,None,,001,2021_May_04_1127,list_pa,2021.1.4,59.76936198755312,
,,15,2,0,2,0,,,,,0,15,15,15,,,329.5046963999994,None,,001,2021_May_04_1127,list_pa,2021.1.4,59.76936198755312,
,,14,2,0,2,0,,,,,0,16,16,16,,,330.5052407999974,None,,001,2021_May_04_1127,list_pa,2021.1.4,59.76936198755312,
,,13,2,0,2,0,,,,,0,17,17,17,,,331.5057997999975,None,,001,2021_May_04_1127,list_pa,2021.1.4,59.76936198755312,
,,12,2,0,2,0,,,,,0,18,18,18,,,332.50589310000214,None,,001,2021_May_04_1127,list_pa,2021.1.4,59.76936198755312,
,,11,2,0,2,0,,,,,0,19,19,19,,,333.505662399999,None,,001,2021_May_04_1127,list_pa,2021.1.4,59.76936198755312,
,,10,2,0,2,0,,,,,0,20,20,20,,,334.5063362000001,None,,001,2021_May_04_1127,list_pa,2021.1.4,59.76936198755312,
,,9,2,0,2,0,,,,,0,21,21,21,,,335.50629879999906,None,,001,2021_May_04_1127,list_pa,2021.1.4,59.76936198755312,
,,8,2,0,2,0,,,,,0,22,22,22,,,336.4890078000026,None,,001,2021_May_04_1127,list_pa,2021.1.4,59.76936198755312,
,,7,2,0,2,0,,,,,0,23,23,23,,,337.5065829000014,None,,001,2021_May_04_1127,list_pa,2021.1.4,59.76936198755312,
,,6,2,0,2,0,,,,,0,24,24,24,,,338.5065351000012,None,,001,2021_May_04_1127,list_pa,2021.1.4,59.76936198755312,
,,5,2,0,2,0,,,,,0,25,25,25,,,339.5075854000024,None,,001,2021_May_04_1127,list_pa,2021.1.4,59.76936198755312,
,,4,2,0,2,0,,,,,0,26,26,26,,,340.50738470000215,None,,001,2021_May_04_1127,list_pa,2021.1.4,59.76936198755312,
,,3,2,0,2,0,,,,,0,27,27,27,,,341.5077777999977,None,,001,2021_May_04_1127,list_pa,2021.1.4,59.76936198755312,
,,2,2,0,2,0,,,,,0,28,28,28,,,342.50776159999805,None,,001,2021_May_04_1127,list_pa,2021.1.4,59.76936198755312,
,,1,2,0,2,0,,,,,0,29,29,29,,,343.5080190000008,None,,001,2021_May_04_1127,list_pa,2021.1.4,59.76936198755312,
,,0,2,0,2,0,,,,,0,30,30,30,,,344.50872640000307,None,,001,2021_May_04_1127,list_pa,2021.1.4,59.76936198755312,
,,,2,0,2,0,,,,,,,,,,,,,,001,2021_May_04_1127,list_pa,2021.1.4,59.76936198755312,
sounds/gauche.ogg,0.7,,3,0,3,0,0,0,0,18,,,,,346.2269309299998,None,,,,001,2021_May_04_1127,list_pa,2021.1.4,59.76936198755312,
sounds/droite.ogg,0.7,,3,0,3,0,0,1,1,28,,,,,347.7268943299976,347.0420047000007,,,,001,2021_May_04_1127,list_pa,2021.1.4,59.76936198755312,
sounds/gauche.ogg,0.7,,3,0,3,0,0,2,2,12,,,,,349.2277701300016,348.54194709999865,,,,001,2021_May_04_1127,list_pa,2021.1.4,59.76936198755312,
sounds/gauche.ogg,0.7,,3,0,3,0,0,3,3,11,,,,,350.7278076300034,350.0425141000014,,,,001,2021_May_04_1127,list_pa,2021.1.4,59.76936198755312,
sounds/droite.ogg,0.7,,3,0,3,0,0,4,4,38,,,,,352.2276047300009,None,,,,001,2021_May_04_1127,list_pa,2021.1.4,59.76936198755312,
sounds/gauche.ogg,0.7,,3,0,3,0,0,5,5,17,,,,,353.7278054300012,353.0430656000026,,,,001,2021_May_04_1127,list_pa,2021.1.4,59.76936198755312,
sounds/droite.ogg,0.7,,3,0,3,0,0,6,6,46,,,,,355.22811713000266,354.5430884000016,,,,001,2021_May_04_1127,list_pa,2021.1.4,59.76936198755312,
sounds/droite.ogg,0.7,,3,0,3,0,0,7,7,42,,,,,356.728438930001,None,,,,001,2021_May_04_1127,list_pa,2021.1.4,59.76936198755312,
sounds/droite.ogg,0.7,,3,0,3,0,0,8,8,27,,,,,358.2290661300038,357.5441892000017,,,,001,2021_May_04_1127,list_pa,2021.1.4,59.76936198755312,
sounds/droite.ogg,0.7,,3,0,3,0,0,9,9,49,,,,,359.72892943000335,359.04407229999924,,,,001,2021_May_04_1127,list_pa,2021.1.4,59.76936198755312,
sounds/gauche.ogg,0.7,,3,0,3,0,0,10,10,21,,,,,361.2296233299974,360.54487369999697,,,,001,2021_May_04_1127,list_pa,2021.1.4,59.76936198755312,
sounds/gauche.ogg,0.7,,3,0,3,0,0,11,11,3,,,,,362.7296677300008,362.0442333000028,,,,001,2021_May_04_1127,list_pa,2021.1.4,59.76936198755312,
sounds/droite.ogg,0.7,,3,0,3,0,0,12,12,32,,,,,364.22997592999747,363.5450987000004,,,,001,2021_May_04_1127,list_pa,2021.1.4,59.76936198755312,
sounds/droite.ogg,0.7,,3,0,3,0,0,13,13,33,,,,,365.7304015300004,365.04600709999795,,,,001,2021_May_04_1127,list_pa,2021.1.4,59.76936198755312,
sounds/gauche.ogg,0.7,,3,0,3,0,0,14,14,20,,,,,367.231069930004,366.54592409999896,,,,001,2021_May_04_1127,list_pa,2021.1.4,59.76936198755312,
sounds/droite.ogg,0.7,,3,0,3,0,0,15,15,44,,,,,368.73093113000215,368.0465772000025,,,,001,2021_May_04_1127,list_pa,2021.1.4,59.76936198755312,
sounds/gauche.ogg,0.7,,3,0,3,0,0,16,16,9,,,,,370.23143873000373,369.5468564999974,,,,001,2021_May_04_1127,list_pa,2021.1.4,59.76936198755312,
sounds/gauche.ogg,0.7,,3,0,3,0,0,17,17,7,,,,,371.7317563299992,371.0469116000022,,,,001,2021_May_04_1127,list_pa,2021.1.4,59.76936198755312,
sounds/droite.ogg,0.7,,3,0,3,0,0,18,18,41,,,,,373.23221022999934,None,,,,001,2021_May_04_1127,list_pa,2021.1.4,59.76936198755312,
sounds/droite.ogg,0.7,,3,0,3,0,0,19,19,36,,,,,374.731645030003,374.0475759999972,,,,001,2021_May_04_1127,list_pa,2021.1.4,59.76936198755312,
sounds/gauche.ogg,0.7,,3,0,3,0,0,20,20,19,,,,,376.23275323000126,375.54836700000305,,,,001,2021_May_04_1127,list_pa,2021.1.4,59.76936198755312,
sounds/gauche.ogg,0.7,,3,0,3,0,0,21,21,5,,,,,377.7332434300013,None,,,,001,2021_May_04_1127,list_pa,2021.1.4,59.76936198755312,
sounds/gauche.ogg,0.7,,3,0,3,0,0,22,22,14,,,,,379.23332743000066,378.5467706999989,,,,001,2021_May_04_1127,list_pa,2021.1.4,59.76936198755312,
sounds/droite.ogg,0.7,,3,0,3,0,0,23,23,34,,,,,380.7334740300037,None,,,,001,2021_May_04_1127,list_pa,2021.1.4,59.76936198755312,
sounds/droite.ogg,0.7,,3,0,3,0,0,24,24,45,,,,,382.23388502999734,381.5487865000032,,,,001,2021_May_04_1127,list_pa,2021.1.4,59.76936198755312,
sounds/droite.ogg,0.7,,3,0,3,0,0,25,25,48,,,,,383.73421743000364,None,,,,001,2021_May_04_1127,list_pa,2021.1.4,59.76936198755312,
sounds/gauche.ogg,0.7,,3,0,3,0,0,26,26,16,,,,,385.2509995300032,None,,,,001,2021_May_04_1127,list_pa,2021.1.4,59.76936198755312,
sounds/droite.ogg,0.7,,3,0,3,0,0,27,27,30,,,,,386.7515406299979,386.06656849999854,,,,001,2021_May_04_1127,list_pa,2021.1.4,59.76936198755312,
sounds/gauche.ogg,0.7,,3,0,3,0,0,28,28,1,,,,,388.2514151300027,387.56681879999815,,,,001,2021_May_04_1127,list_pa,2021.1.4,59.76936198755312,
sounds/droite.ogg,0.7,,3,0,3,0,0,29,29,31,,,,,389.75206332999807,389.06684400000086,,,,001,2021_May_04_1127,list_pa,2021.1.4,59.76936198755312,
sounds/gauche.ogg,0.7,,3,0,3,0,0,30,30,0,,,,,391.25250682999905,390.5671175000025,,,,001,2021_May_04_1127,list_pa,2021.1.4,59.76936198755312,
sounds/gauche.ogg,0.7,,3,0,3,0,0,31,31,6,,,,,392.75326493000176,None,,,,001,2021_May_04_1127,list_pa,2021.1.4,59.76936198755312,
sounds/gauche.ogg,0.7,,3,0,3,0,0,32,32,2,,,,,394.25230422999886,393.5684844999996,,,,001,2021_May_04_1127,list_pa,2021.1.4,59.76936198755312,
sounds/droite.ogg,0.7,,3,0,3,0,0,33,33,35,,,,,395.75348312999705,395.0691178999987,,,,001,2021_May_04_1127,list_pa,2021.1.4,59.76936198755312,
sounds/droite.ogg,0.7,,3,0,3,0,0,34,34,26,,,,,397.2537252299997,396.5684889999975,,,,001,2021_May_04_1127,list_pa,2021.1.4,59.76936198755312,
sounds/gauche.ogg,0.7,,3,0,3,0,0,35,35,22,,,,,398.75371262999835,None,,,,001,2021_May_04_1127,list_pa,2021.1.4,59.76936198755312,
sounds/gauche.ogg,0.7,,3,0,3,0,0,36,36,4,,,,,400.25480572999805,None,,,,001,2021_May_04_1127,list_pa,2021.1.4,59.76936198755312,
sounds/droite.ogg,0.7,,3,0,3,0,0,37,37,39,,,,,401.7546679300038,401.0693715000016,,,,001,2021_May_04_1127,list_pa,2021.1.4,59.76936198755312,
sounds/gauche.ogg,0.7,,3,0,3,0,0,38,38,13,,,,,403.2548577300011,402.569694400001,,,,001,2021_May_04_1127,list_pa,2021.1.4,59.76936198755312,
sounds/gauche.ogg,0.7,,3,0,3,0,0,39,39,15,,,,,404.7550902300034,404.0699515000015,,,,001,2021_May_04_1127,list_pa,2021.1.4,59.76936198755312,
sounds/droite.ogg,0.7,,3,0,3,0,0,40,40,25,,,,,406.2559855300031,None,,,,001,2021_May_04_1127,list_pa,2021.1.4,59.76936198755312,
sounds/gauche.ogg,0.7,,3,0,3,0,0,41,41,10,,,,,407.7561335300023,407.07038869999815,,,,001,2021_May_04_1127,list_pa,2021.1.4,59.76936198755312,
sounds/gauche.ogg,0.7,,3,0,3,0,0,42,42,8,,,,,409.25602733000125,408.5709496999989,,,,001,2021_May_04_1127,list_pa,2021.1.4,59.76936198755312,
sounds/droite.ogg,0.7,,3,0,3,0,0,43,43,29,,,,,410.756448130004,None,,,,001,2021_May_04_1127,list_pa,2021.1.4,59.76936198755312,
sounds/droite.ogg,0.7,,3,0,3,0,0,44,44,40,,,,,412.2565274300039,411.57159669999965,,,,001,2021_May_04_1127,list_pa,2021.1.4,59.76936198755312,
sounds/droite.ogg,0.7,,3,0,3,0,0,45,45,43,,,,,413.756709029997,413.0720642000015,,,,001,2021_May_04_1127,list_pa,2021.1.4,59.76936198755312,
sounds/droite.ogg,0.7,,3,0,3,0,0,46,46,37,,,,,415.25750902999863,414.5721094000037,,,,001,2021_May_04_1127,list_pa,2021.1.4,59.76936198755312,
sounds/gauche.ogg,0.7,,3,0,3,0,0,47,47,23,,,,,416.7576714299983,416.07235239999864,,,,001,2021_May_04_1127,list_pa,2021.1.4,59.76936198755312,
sounds/gauche.ogg,0.7,,3,0,3,0,0,48,48,24,,,,,418.25777623000323,417.573017900002,,,,001,2021_May_04_1127,list_pa,2021.1.4,59.76936198755312,
sounds/droite.ogg,0.7,,3,0,3,0,0,49,49,47,,,,,419.75795132999775,419.0730734000026,,,,001,2021_May_04_1127,list_pa,2021.1.4,59.76936198755312,
,,30,3,0,3,0,,,,,0,0,0,0,,,420.5888131000029,None,,001,2021_May_04_1127,list_pa,2021.1.4,59.76936198755312,
,,29,3,0,3,0,,,,,0,1,1,1,,,421.59029759999976,None,,001,2021_May_04_1127,list_pa,2021.1.4,59.76936198755312,
,,28,3,0,3,0,,,,,0,2,2,2,,,422.5906052999999,None,,001,2021_May_04_1127,list_pa,2021.1.4,59.76936198755312,
,,27,3,0,3,0,,,,,0,3,3,3,,,423.59078740000405,None,,001,2021_May_04_1127,list_pa,2021.1.4,59.76936198755312,
,,26,3,0,3,0,,,,,0,4,4,4,,,424.5909641000035,None,,001,2021_May_04_1127,list_pa,2021.1.4,59.76936198755312,
,,25,3,0,3,0,,,,,0,5,5,5,,,425.59109660000104,None,,001,2021_May_04_1127,list_pa,2021.1.4,59.76936198755312,
,,24,3,0,3,0,,,,,0,6,6,6,,,426.5909260999979,None,,001,2021_May_04_1127,list_pa,2021.1.4,59.76936198755312,
,,23,3,0,3,0,,,,,0,7,7,7,,,427.5913873000027,None,,001,2021_May_04_1127,list_pa,2021.1.4,59.76936198755312,
,,22,3,0,3,0,,,,,0,8,8,8,,,428.5914927999984,None,,001,2021_May_04_1127,list_pa,2021.1.4,59.76936198755312,
,,21,3,0,3,0,,,,,0,9,9,9,,,429.59224859999813,None,,001,2021_May_04_1127,list_pa,2021.1.4,59.76936198755312,
,,20,3,0,3,0,,,,,0,10,10,10,,,430.59251690000383,None,,001,2021_May_04_1127,list_pa,2021.1.4,59.76936198755312,
,,19,3,0,3,0,,,,,0,11,11,11,,,431.59244639999815,None,,001,2021_May_04_1127,list_pa,2021.1.4,59.76936198755312,
,,18,3,0,3,0,,,,,0,12,12,12,,,432.5928625000015,None,,001,2021_May_04_1127,list_pa,2021.1.4,59.76936198755312,
,,17,3,0,3,0,,,,,0,13,13,13,,,433.57586060000176,None,,001,2021_May_04_1127,list_pa,2021.1.4,59.76936198755312,
,,16,3,0,3,0,,,,,0,14,14,14,,,434.59306769999966,None,,001,2021_May_04_1127,list_pa,2021.1.4,59.76936198755312,
,,15,3,0,3,0,,,,,0,15,15,15,,,435.57677590000094,None,,001,2021_May_04_1127,list_pa,2021.1.4,59.76936198755312,
,,14,3,0,3,0,,,,,0,16,16,16,,,436.59352780000336,None,,001,2021_May_04_1127,list_pa,2021.1.4,59.76936198755312,
,,13,3,0,3,0,,,,,0,17,17,17,,,437.5770180999971,None,,001,2021_May_04_1127,list_pa,2021.1.4,59.76936198755312,
,,12,3,0,3,0,,,,,0,18,18,18,,,438.57750680000026,None,,001,2021_May_04_1127,list_pa,2021.1.4,59.76936198755312,
,,11,3,0,3,0,,,,,0,19,19,19,,,439.57746800000314,None,,001,2021_May_04_1127,list_pa,2021.1.4,59.76936198755312,
,,10,3,0,3,0,,,,,0,20,20,20,,,440.5782496000029,None,,001,2021_May_04_1127,list_pa,2021.1.4,59.76936198755312,
,,9,3,0,3,0,,,,,0,21,21,21,,,441.57898879999993,None,,001,2021_May_04_1127,list_pa,2021.1.4,59.76936198755312,
,,8,3,0,3,0,,,,,0,22,22,22,,,442.57846430000063,None,,001,2021_May_04_1127,list_pa,2021.1.4,59.76936198755312,
,,7,3,0,3,0,,,,,0,23,23,23,,,443.57900070000323,None,,001,2021_May_04_1127,list_pa,2021.1.4,59.76936198755312,
,,6,3,0,3,0,,,,,0,24,24,24,,,444.57906699999876,None,,001,2021_May_04_1127,list_pa,2021.1.4,59.76936198755312,
,,5,3,0,3,0,,,,,0,25,25,25,,,445.57890600000246,None,,001,2021_May_04_1127,list_pa,2021.1.4,59.76936198755312,
,,4,3,0,3,0,,,,,0,26,26,26,,,446.57881949999864,None,,001,2021_May_04_1127,list_pa,2021.1.4,59.76936198755312,
,,3,3,0,3,0,,,,,0,27,27,27,,,447.57914880000317,None,,001,2021_May_04_1127,list_pa,2021.1.4,59.76936198755312,
,,2,3,0,3,0,,,,,0,28,28,28,,,448.5788167999999,None,,001,2021_May_04_1127,list_pa,2021.1.4,59.76936198755312,
,,1,3,0,3,0,,,,,0,29,29,29,,,449.5792556000015,None,,001,2021_May_04_1127,list_pa,2021.1.4,59.76936198755312,
,,0,3,0,3,0,,,,,0,30,30,30,,,450.57947360000253,None,,001,2021_May_04_1127,list_pa,2021.1.4,59.76936198755312,
,,,3,0,3,0,,,,,,,,,,,,,,001,2021_May_04_1127,list_pa,2021.1.4,59.76936198755312,
sounds/droite.ogg,0.7,,4,0,4,0,0,0,0,42,,,,,452.31563542999794,None,,,,001,2021_May_04_1127,list_pa,2021.1.4,59.76936198755312,
sounds/droite.ogg,0.7,,4,0,4,0,0,1,1,35,,,,,453.8158044300042,453.12938620000205,,,,001,2021_May_04_1127,list_pa,2021.1.4,59.76936198755312,
sounds/gauche.ogg,0.7,,4,0,4,0,0,2,2,12,,,,,455.3154007300007,454.63027560000046,,,,001,2021_May_04_1127,list_pa,2021.1.4,59.76936198755312,
sounds/droite.ogg,0.7,,4,0,4,0,0,3,3,43,,,,,456.81544753000054,456.13026170000376,,,,001,2021_May_04_1127,list_pa,2021.1.4,59.76936198755312,
sounds/gauche.ogg,0.7,,4,0,4,0,0,4,4,11,,,,,458.31576493000176,457.63072190000094,,,,001,2021_May_04_1127,list_pa,2021.1.4,59.76936198755312,
sounds/droite.ogg,0.7,,4,0,4,0,0,5,5,32,,,,,459.81640013,459.1310597999982,,,,001,2021_May_04_1127,list_pa,2021.1.4,59.76936198755312,
sounds/droite.ogg,0.7,,4,0,4,0,0,6,6,26,,,,,461.31715112999956,460.6313769999979,,,,001,2021_May_04_1127,list_pa,2021.1.4,59.76936198755312,
sounds/gauche.ogg,0.7,,4,0,4,0,0,7,7,15,,,,,462.816863830002,462.1319810999994,,,,001,2021_May_04_1127,list_pa,2021.1.4,59.76936198755312,
sounds/gauche.ogg,0.7,,4,0,4,0,0,8,8,22,,,,,464.31707513000293,463.63230060000205,,,,001,2021_May_04_1127,list_pa,2021.1.4,59.76936198755312,
sounds/droite.ogg,0.7,,4,0,4,0,0,9,9,31,,,,,465.81759763000156,None,,,,001,2021_May_04_1127,list_pa,2021.1.4,59.76936198755312,
sounds/gauche.ogg,0.7,,4,0,4,0,0,10,10,17,,,,,467.31761573000114,466.6332309999998,,,,001,2021_May_04_1127,list_pa,2021.1.4,59.76936198755312,
sounds/droite.ogg,0.7,,4,0,4,0,0,11,11,49,,,,,468.8184441300007,468.1333578999984,,,,001,2021_May_04_1127,list_pa,2021.1.4,59.76936198755312,
sounds/gauche.ogg,0.7,,4,0,4,0,0,12,12,19,,,,,470.3184065299982,469.6336040000024,,,,001,2021_May_04_1127,list_pa,2021.1.4,59.76936198755312,
sounds/gauche.ogg,0.7,,4,0,4,0,0,13,13,14,,,,,471.81809573000356,471.13415740000346,,,,001,2021_May_04_1127,list_pa,2021.1.4,59.76936198755312,
sounds/gauche.ogg,0.7,,4,0,4,0,0,14,14,1,,,,,473.3186803300021,472.6340737999999,,,,001,2021_May_04_1127,list_pa,2021.1.4,59.76936198755312,
sounds/gauche.ogg,0.7,,4,0,4,0,0,15,15,18,,,,,474.81908592999827,474.1346906000035,,,,001,2021_May_04_1127,list_pa,2021.1.4,59.76936198755312,
sounds/droite.ogg,0.7,,4,0,4,0,0,16,16,36,,,,,476.3198889300009,None,,,,001,2021_May_04_1127,list_pa,2021.1.4,59.76936198755312,
sounds/droite.ogg,0.7,,4,0,4,0,0,17,17,29,,,,,477.81991293000175,477.1350193000035,,,,001,2021_May_04_1127,list_pa,2021.1.4,59.76936198755312,
sounds/droite.ogg,0.7,,4,0,4,0,0,18,18,28,,,,,479.3199755299982,478.63522920000105,,,,001,2021_May_04_1127,list_pa,2021.1.4,59.76936198755312,
sounds/droite.ogg,0.7,,4,0,4,0,0,19,19,40,,,,,480.8206174300038,480.13564159999805,,,,001,2021_May_04_1127,list_pa,2021.1.4,59.76936198755312,
sounds/gauche.ogg,0.7,,4,0,4,0,0,20,20,4,,,,,482.3206188299999,None,,,,001,2021_May_04_1127,list_pa,2021.1.4,59.76936198755312,
sounds/gauche.ogg,0.7,,4,0,4,0,0,21,21,3,,,,,483.8210205300027,483.136116499998,,,,001,2021_May_04_1127,list_pa,2021.1.4,59.76936198755312,
sounds/gauche.ogg,0.7,,4,0,4,0,0,22,22,5,,,,,485.3215085300006,484.6375870999982,,,,001,2021_May_04_1127,list_pa,2021.1.4,59.76936198755312,
sounds/droite.ogg,0.7,,4,0,4,0,0,23,23,25,,,,,486.8219231299998,None,,,,001,2021_May_04_1127,list_pa,2021.1.4,59.76936198755312,
sounds/droite.ogg,0.7,,4,0,4,0,0,24,24,38,,,,,488.3221246299989,487.63763520000066,,,,001,2021_May_04_1127,list_pa,2021.1.4,59.76936198755312,
sounds/droite.ogg,0.7,,4,0,4,0,0,25,25,46,,,,,489.8225394299996,489.13759030000074,,,,001,2021_May_04_1127,list_pa,2021.1.4,59.76936198755312,
sounds/droite.ogg,0.7,,4,0,4,0,0,26,26,33,,,,,491.3206048300024,490.6378926999969,,,,001,2021_May_04_1127,list_pa,2021.1.4,59.76936198755312,
sounds/gauche.ogg,0.7,,4,0,4,0,0,27,27,23,,,,,492.82286122999795,492.13777480000135,,,,001,2021_May_04_1127,list_pa,2021.1.4,59.76936198755312,
sounds/gauche.ogg,0.7,,4,0,4,0,0,28,28,16,,,,,494.3377262300026,None,,,,001,2021_May_04_1127,list_pa,2021.1.4,59.76936198755312,
sounds/droite.ogg,0.7,,4,0,4,0,0,29,29,48,,,,,495.83941863000365,495.15377389999776,,,,001,2021_May_04_1127,list_pa,2021.1.4,59.76936198755312,
sounds/droite.ogg,0.7,,4,0,4,0,0,30,30,37,,,,,497.3407216300009,496.655557099999,,,,001,2021_May_04_1127,list_pa,2021.1.4,59.76936198755312,
sounds/gauche.ogg,0.7,,4,0,4,0,0,31,31,8,,,,,498.8411068300018,498.15608200000133,,,,001,2021_May_04_1127,list_pa,2021.1.4,59.76936198755312,
sounds/gauche.ogg,0.7,,4,0,4,0,0,32,32,6,,,,,500.3417154300012,499.65632899999764,,,,001,2021_May_04_1127,list_pa,2021.1.4,59.76936198755312,
sounds/gauche.ogg,0.7,,4,0,4,0,0,33,33,0,,,,,501.84212573000406,None,,,,001,2021_May_04_1127,list_pa,2021.1.4,59.76936198755312,
sounds/gauche.ogg,0.7,,4,0,4,0,0,34,34,13,,,,,503.34190963000293,502.65651629999775,,,,001,2021_May_04_1127,list_pa,2021.1.4,59.76936198755312,
sounds/gauche.ogg,0.7,,4,0,4,0,0,35,35,7,,,,,504.8418284300031,504.15764070000296,,,,001,2021_May_04_1127,list_pa,2021.1.4,59.76936198755312,
sounds/droite.ogg,0.7,,4,0,4,0,0,36,36,34,,,,,506.34186743000174,505.65773849999823,,,,001,2021_May_04_1127,list_pa,2021.1.4,59.76936198755312,
sounds/gauche.ogg,0.7,,4,0,4,0,0,37,37,21,,,,,507.8431264299987,507.1583538999985,,,,001,2021_May_04_1127,list_pa,2021.1.4,59.76936198755312,
sounds/droite.ogg,0.7,,4,0,4,0,0,38,38,45,,,,,509.34323223000393,508.6592088999969,,,,001,2021_May_04_1127,list_pa,2021.1.4,59.76936198755312,
sounds/gauche.ogg,0.7,,4,0,4,0,0,39,39,24,,,,,510.8433599300013,510.15832599999703,,,,001,2021_May_04_1127,list_pa,2021.1.4,59.76936198755312,
sounds/droite.ogg,0.7,,4,0,4,0,0,40,40,30,,,,,512.3434496300004,511.6589285000009,,,,001,2021_May_04_1127,list_pa,2021.1.4,59.76936198755312,
sounds/droite.ogg,0.7,,4,0,4,0,0,41,41,39,,,,,513.8444454300013,None,,,,001,2021_May_04_1127,list_pa,2021.1.4,59.76936198755312,
sounds/droite.ogg,0.7,,4,0,4,0,0,42,42,44,,,,,515.3442774300026,514.6590872000015,,,,001,2021_May_04_1127,list_pa,2021.1.4,59.76936198755312,
sounds/droite.ogg,0.7,,4,0,4,0,0,43,43,41,,,,,516.845020229998,516.160391999998,,,,001,2021_May_04_1127,list_pa,2021.1.4,59.76936198755312,
sounds/gauche.ogg,0.7,,4,0,4,0,0,44,44,10,,,,,518.3450326299978,517.6597586999997,,,,001,2021_May_04_1127,list_pa,2021.1.4,59.76936198755312,
sounds/droite.ogg,0.7,,4,0,4,0,0,45,45,47,,,,,519.8455788300023,None,,,,001,2021_May_04_1127,list_pa,2021.1.4,59.76936198755312,
sounds/gauche.ogg,0.7,,4,0,4,0,0,46,46,20,,,,,521.345672729997,520.6602559000021,,,,001,2021_May_04_1127,list_pa,2021.1.4,59.76936198755312,
sounds/droite.ogg,0.7,,4,0,4,0,0,47,47,27,,,,,522.8456024300001,522.1609660000031,,,,001,2021_May_04_1127,list_pa,2021.1.4,59.76936198755312,
sounds/gauche.ogg,0.7,,4,0,4,0,0,48,48,9,,,,,524.3464269299991,523.6614251999999,,,,001,2021_May_04_1127,list_pa,2021.1.4,59.76936198755312,
sounds/gauche.ogg,0.7,,4,0,4,0,0,49,49,2,,,,,525.8463347300028,525.1615424999982,,,,001,2021_May_04_1127,list_pa,2021.1.4,59.76936198755312,
,,30,4,0,4,0,,,,,0,0,0,0,,,526.6950900000011,None,,001,2021_May_04_1127,list_pa,2021.1.4,59.76936198755312,
,,29,4,0,4,0,,,,,0,1,1,1,,,527.6787745999973,None,,001,2021_May_04_1127,list_pa,2021.1.4,59.76936198755312,
,,28,4,0,4,0,,,,,0,2,2,2,,,528.6790981000013,None,,001,2021_May_04_1127,list_pa,2021.1.4,59.76936198755312,
,,27,4,0,4,0,,,,,0,3,3,3,,,529.6791729000033,None,,001,2021_May_04_1127,list_pa,2021.1.4,59.76936198755312,
,,26,4,0,4,0,,,,,0,4,4,4,,,530.6791907000006,None,,001,2021_May_04_1127,list_pa,2021.1.4,59.76936198755312,
,,25,4,0,4,0,,,,,0,5,5,5,,,531.6518370999984,None,,001,2021_May_04_1127,list_pa,2021.1.4,59.76936198755312,
,,24,4,0,4,0,,,,,0,6,6,6,,,532.6538082999978,None,,001,2021_May_04_1127,list_pa,2021.1.4,59.76936198755312,
,,23,4,0,4,0,,,,,0,7,7,7,,,533.6684672999982,None,,001,2021_May_04_1127,list_pa,2021.1.4,59.76936198755312,
,,22,4,0,4,0,,,,,0,8,8,8,,,534.6671599999972,None,,001,2021_May_04_1127,list_pa,2021.1.4,59.76936198755312,
,,21,4,0,4,0,,,,,0,9,9,9,,,None,None,,001,2021_May_04_1127,list_pa,2021.1.4,59.76936198755312,
,,20,4,0,4,0,,,,,0,10,10,10,,,None,None,,001,2021_May_04_1127,list_pa,2021.1.4,59.76936198755312,
,,19,4,0,4,0,,,,,0,11,11,11,,,None,None,,001,2021_May_04_1127,list_pa,2021.1.4,59.76936198755312,
,,18,4,0,4,0,,,,,0,12,12,12,,,None,None,,001,2021_May_04_1127,list_pa,2021.1.4,59.76936198755312,
,,17,4,0,4,0,,,,,0,13,13,13,,,None,None,,001,2021_May_04_1127,list_pa,2021.1.4,59.76936198755312,
,,16,4,0,4,0,,,,,0,14,14,14,,,None,None,,001,2021_May_04_1127,list_pa,2021.1.4,59.76936198755312,
,,15,4,0,4,0,,,,,0,15,15,15,,,None,None,,001,2021_May_04_1127,list_pa,2021.1.4,59.76936198755312,
,,14,4,0,4,0,,,,,0,16,16,16,,,None,None,,001,2021_May_04_1127,list_pa,2021.1.4,59.76936198755312,
,,13,4,0,4,0,,,,,0,17,17,17,,,None,None,,001,2021_May_04_1127,list_pa,2021.1.4,59.76936198755312,
,,12,4,0,4,0,,,,,0,18,18,18,,,None,None,,001,2021_May_04_1127,list_pa,2021.1.4,59.76936198755312,
,,11,4,0,4,0,,,,,0,19,19,19,,,None,None,,001,2021_May_04_1127,list_pa,2021.1.4,59.76936198755312,
,,10,4,0,4,0,,,,,0,20,20,20,,,None,None,,001,2021_May_04_1127,list_pa,2021.1.4,59.76936198755312,
,,9,4,0,4,0,,,,,0,21,21,21,,,None,None,,001,2021_May_04_1127,list_pa,2021.1.4,59.76936198755312,
,,8,4,0,4,0,,,,,0,22,22,22,,,None,None,,001,2021_May_04_1127,list_pa,2021.1.4,59.76936198755312,
,,7,4,0,4,0,,,,,0,23,23,23,,,None,None,,001,2021_May_04_1127,list_pa,2021.1.4,59.76936198755312,
,,6,4,0,4,0,,,,,0,24,24,24,,,None,None,,001,2021_May_04_1127,list_pa,2021.1.4,59.76936198755312,
,,5,4,0,4,0,,,,,0,25,25,25,,,None,None,,001,2021_May_04_1127,list_pa,2021.1.4,59.76936198755312,
,,4,4,0,4,0,,,,,0,26,26,26,,,None,None,,001,2021_May_04_1127,list_pa,2021.1.4,59.76936198755312,
,,3,4,0,4,0,,,,,0,27,27,27,,,None,None,,001,2021_May_04_1127,list_pa,2021.1.4,59.76936198755312,
,,2,4,0,4,0,,,,,0,28,28,28,,,None,None,,001,2021_May_04_1127,list_pa,2021.1.4,59.76936198755312,
,,1,4,0,4,0,,,,,0,29,29,29,,,None,None,,001,2021_May_04_1127,list_pa,2021.1.4,59.76936198755312,
,,0,4,0,4,0,,,,,0,30,30,30,,,None,None,,001,2021_May_04_1127,list_pa,2021.1.4,59.76936198755312,
,,,4,0,4,0,,,,,,,,,,,,,,001,2021_May_04_1127,list_pa,2021.1.4,59.76936198755312,
