word_stimuli,isi,countdown,trials.thisRepN,trials.thisTrialN,trials.thisN,trials.thisIndex,trial_loop.thisRepN,trial_loop.thisTrialN,trial_loop.thisN,trial_loop.thisIndex,trials_2.thisRepN,trials_2.thisTrialN,trials_2.thisN,trials_2.thisIndex,sound_exposure.started,sound_exposure.stopped,text.started,text.stopped,participant,session,date,expName,psychopyVersion,frameRate,
sounds/droite.ogg,0.7,,0,0,0,0,0,0,0,38,,,,,82.4988260300037,None,,,,001,2021_May_04_0933,list_pa,2021.1.4,59.91726623832218,
sounds/gauche.ogg,0.7,,0,0,0,0,0,1,1,14,,,,,84.03308173000042,83.33109859999968,,,,001,2021_May_04_0933,list_pa,2021.1.4,59.91726623832218,
sounds/gauche.ogg,0.7,,0,0,0,0,0,2,2,12,,,,,85.53100643000144,84.84828269999707,,,,001,2021_May_04_0933,list_pa,2021.1.4,59.91726623832218,
sounds/gauche.ogg,0.7,,0,0,0,0,0,3,3,9,,,,,87.03394673000221,86.34872390000237,,,,001,2021_May_04_0933,list_pa,2021.1.4,59.91726623832218,
sounds/gauche.ogg,0.7,,0,0,0,0,0,4,4,3,,,,,88.53439863000168,87.84948949999671,,,,001,2021_May_04_0933,list_pa,2021.1.4,59.91726623832218,
sounds/gauche.ogg,0.7,,0,0,0,0,0,5,5,4,,,,,90.03469632999841,None,,,,001,2021_May_04_0933,list_pa,2021.1.4,59.91726623832218,
sounds/droite.ogg,0.7,,0,0,0,0,0,6,6,33,,,,,91.53498933000301,90.84976879999886,,,,001,2021_May_04_0933,list_pa,2021.1.4,59.91726623832218,
sounds/gauche.ogg,0.7,,0,0,0,0,0,7,7,6,,,,,93.03495162999971,None,,,,001,2021_May_04_0933,list_pa,2021.1.4,59.91726623832218,
sounds/gauche.ogg,0.7,,0,0,0,0,0,8,8,23,,,,,94.53640143000158,93.85043310000037,,,,001,2021_May_04_0933,list_pa,2021.1.4,59.91726623832218,
sounds/gauche.ogg,0.7,,0,0,0,0,0,9,9,8,,,,,96.05245283000332,95.36741299999994,,,,001,2021_May_04_0933,list_pa,2021.1.4,59.91726623832218,
sounds/droite.ogg,0.7,,0,0,0,0,0,10,10,34,,,,,97.55268203000233,96.86805910000112,,,,001,2021_May_04_0933,list_pa,2021.1.4,59.91726623832218,
sounds/droite.ogg,0.7,,0,0,0,0,0,11,11,39,,,,,99.05344473000369,98.36752990000241,,,,001,2021_May_04_0933,list_pa,2021.1.4,59.91726623832218,
sounds/gauche.ogg,0.7,,0,0,0,0,0,12,12,15,,,,,100.5538310299984,99.86840839999786,,,,001,2021_May_04_0933,list_pa,2021.1.4,59.91726623832218,
sounds/gauche.ogg,0.7,,0,0,0,0,0,13,13,24,,,,,102.05375613000288,101.36853439999686,,,,001,2021_May_04_0933,list_pa,2021.1.4,59.91726623832218,
sounds/droite.ogg,0.7,,0,0,0,0,0,14,14,44,,,,,103.55400402999877,102.86896220000199,,,,001,2021_May_04_0933,list_pa,2021.1.4,59.91726623832218,
sounds/gauche.ogg,0.7,,0,0,0,0,0,15,15,22,,,,,105.05501243000109,None,,,,001,2021_May_04_0933,list_pa,2021.1.4,59.91726623832218,
sounds/droite.ogg,0.7,,0,0,0,0,0,16,16,25,,,,,106.55462483000375,105.86991819999821,,,,001,2021_May_04_0933,list_pa,2021.1.4,59.91726623832218,
sounds/gauche.ogg,0.7,,0,0,0,0,0,17,17,21,,,,,108.05481132999776,107.37076810000144,,,,001,2021_May_04_0933,list_pa,2021.1.4,59.91726623832218,
sounds/gauche.ogg,0.7,,0,0,0,0,0,18,18,11,,,,,109.55535173000172,None,,,,001,2021_May_04_0933,list_pa,2021.1.4,59.91726623832218,
sounds/droite.ogg,0.7,,0,0,0,0,0,19,19,43,,,,,111.05571183000066,110.36949750000349,,,,001,2021_May_04_0933,list_pa,2021.1.4,59.91726623832218,
sounds/gauche.ogg,0.7,,0,0,0,0,0,20,20,13,,,,,112.55379713000221,None,,,,001,2021_May_04_0933,list_pa,2021.1.4,59.91726623832218,
sounds/droite.ogg,0.7,,0,0,0,0,0,21,21,49,,,,,114.05652783000042,113.37042790000123,,,,001,2021_May_04_0933,list_pa,2021.1.4,59.91726623832218,
sounds/gauche.ogg,0.7,,0,0,0,0,0,22,22,2,,,,,115.5564807299983,114.87117020000005,,,,001,2021_May_04_0933,list_pa,2021.1.4,59.91726623832218,
sounds/gauche.ogg,0.7,,0,0,0,0,0,23,23,5,,,,,117.05684272999716,116.37175800000114,,,,001,2021_May_04_0933,list_pa,2021.1.4,59.91726623832218,
sounds/gauche.ogg,0.7,,0,0,0,0,0,24,24,10,,,,,118.55746212999875,117.8719259999998,,,,001,2021_May_04_0933,list_pa,2021.1.4,59.91726623832218,
sounds/droite.ogg,0.7,,0,0,0,0,0,25,25,42,,,,,120.05822442999707,119.37187370000174,,,,001,2021_May_04_0933,list_pa,2021.1.4,59.91726623832218,
sounds/gauche.ogg,0.7,,0,0,0,0,0,26,26,20,,,,,121.55773552999963,120.87256609999895,,,,001,2021_May_04_0933,list_pa,2021.1.4,59.91726623832218,
sounds/droite.ogg,0.7,,0,0,0,0,0,27,27,28,,,,,123.0580467299973,None,,,,001,2021_May_04_0933,list_pa,2021.1.4,59.91726623832218,
sounds/droite.ogg,0.7,,0,0,0,0,0,28,28,41,,,,,124.55842832999988,123.87293369999679,,,,001,2021_May_04_0933,list_pa,2021.1.4,59.91726623832218,
sounds/droite.ogg,0.7,,0,0,0,0,0,29,29,32,,,,,126.05867732999687,125.37358820000372,,,,001,2021_May_04_0933,list_pa,2021.1.4,59.91726623832218,
sounds/gauche.ogg,0.7,,0,0,0,0,0,30,30,17,,,,,127.55846603000319,126.87388120000105,,,,001,2021_May_04_0933,list_pa,2021.1.4,59.91726623832218,
sounds/droite.ogg,0.7,,0,0,0,0,0,31,31,45,,,,,129.05922823000074,128.37402570000268,,,,001,2021_May_04_0933,list_pa,2021.1.4,59.91726623832218,
sounds/gauche.ogg,0.7,,0,0,0,0,0,32,32,0,,,,,130.5590418300002,129.87478749999718,,,,001,2021_May_04_0933,list_pa,2021.1.4,59.91726623832218,
sounds/gauche.ogg,0.7,,0,0,0,0,0,33,33,19,,,,,132.0597925299975,131.37482750000345,,,,001,2021_May_04_0933,list_pa,2021.1.4,59.91726623832218,
sounds/droite.ogg,0.7,,0,0,0,0,0,34,34,37,,,,,133.55992113000175,132.87536169999657,,,,001,2021_May_04_0933,list_pa,2021.1.4,59.91726623832218,
sounds/droite.ogg,0.7,,0,0,0,0,0,35,35,31,,,,,135.06011873000026,134.37546080000175,,,,001,2021_May_04_0933,list_pa,2021.1.4,59.91726623832218,
sounds/gauche.ogg,0.7,,0,0,0,0,0,36,36,1,,,,,136.56040203000376,135.87594450000324,,,,001,2021_May_04_0933,list_pa,2021.1.4,59.91726623832218,
sounds/droite.ogg,0.7,,0,0,0,0,0,37,37,26,,,,,138.06098152999985,137.37612819999777,,,,001,2021_May_04_0933,list_pa,2021.1.4,59.91726623832218,
sounds/droite.ogg,0.7,,0,0,0,0,0,38,38,27,,,,,139.56066243000024,None,,,,001,2021_May_04_0933,list_pa,2021.1.4,59.91726623832218,
sounds/droite.ogg,0.7,,0,0,0,0,0,39,39,35,,,,,141.06175693000333,140.37568830000237,,,,001,2021_May_04_0933,list_pa,2021.1.4,59.91726623832218,
sounds/droite.ogg,0.7,,0,0,0,0,0,40,40,40,,,,,142.56174833000333,141.8770669000005,,,,001,2021_May_04_0933,list_pa,2021.1.4,59.91726623832218,
sounds/droite.ogg,0.7,,0,0,0,0,0,41,41,46,,,,,144.06224252999746,None,,,,001,2021_May_04_0933,list_pa,2021.1.4,59.91726623832218,
sounds/droite.ogg,0.7,,0,0,0,0,0,42,42,30,,,,,145.5623722300028,144.87725299999875,,,,001,2021_May_04_0933,list_pa,2021.1.4,59.91726623832218,
sounds/gauche.ogg,0.7,,0,0,0,0,0,43,43,18,,,,,147.06265603000284,146.37826309999946,,,,001,2021_May_04_0933,list_pa,2021.1.4,59.91726623832218,
sounds/droite.ogg,0.7,,0,0,0,0,0,44,44,36,,,,,148.56256732999682,147.87822769999912,,,,001,2021_May_04_0933,list_pa,2021.1.4,59.91726623832218,
sounds/droite.ogg,0.7,,0,0,0,0,0,45,45,47,,,,,150.06364223000347,149.3785121999972,,,,001,2021_May_04_0933,list_pa,2021.1.4,59.91726623832218,
sounds/gauche.ogg,0.7,,0,0,0,0,0,46,46,16,,,,,151.56366093000034,150.8789312000008,,,,001,2021_May_04_0933,list_pa,2021.1.4,59.91726623832218,
sounds/gauche.ogg,0.7,,0,0,0,0,0,47,47,7,,,,,153.06414483000336,152.37969029999658,,,,001,2021_May_04_0933,list_pa,2021.1.4,59.91726623832218,
sounds/droite.ogg,0.7,,0,0,0,0,0,48,48,29,,,,,154.56439552999873,153.87949200000003,,,,001,2021_May_04_0933,list_pa,2021.1.4,59.91726623832218,
sounds/droite.ogg,0.7,,0,0,0,0,0,49,49,48,,,,,156.065208729999,155.38003179999941,,,,001,2021_May_04_0933,list_pa,2021.1.4,59.91726623832218,
,,30,0,0,0,0,,,,,0,0,0,0,,,157.13868830000138,None,,001,2021_May_04_0933,list_pa,2021.1.4,59.91726623832218,
,,29,0,0,0,0,,,,,0,1,1,1,,,157.8972333999991,None,,001,2021_May_04_0933,list_pa,2021.1.4,59.91726623832218,
,,28,0,0,0,0,,,,,0,2,2,2,,,158.89740300000267,None,,001,2021_May_04_0933,list_pa,2021.1.4,59.91726623832218,
,,27,0,0,0,0,,,,,0,3,3,3,,,159.89729200000147,None,,001,2021_May_04_0933,list_pa,2021.1.4,59.91726623832218,
,,26,0,0,0,0,,,,,0,4,4,4,,,160.897782,None,,001,2021_May_04_0933,list_pa,2021.1.4,59.91726623832218,
,,25,0,0,0,0,,,,,0,5,5,5,,,161.89715299999807,None,,001,2021_May_04_0933,list_pa,2021.1.4,59.91726623832218,
,,24,0,0,0,0,,,,,0,6,6,6,,,162.89785989999655,None,,001,2021_May_04_0933,list_pa,2021.1.4,59.91726623832218,
,,23,0,0,0,0,,,,,0,7,7,7,,,163.8981352999981,None,,001,2021_May_04_0933,list_pa,2021.1.4,59.91726623832218,
,,22,0,0,0,0,,,,,0,8,8,8,,,164.89858470000036,None,,001,2021_May_04_0933,list_pa,2021.1.4,59.91726623832218,
,,21,0,0,0,0,,,,,0,9,9,9,,,165.89866679999977,None,,001,2021_May_04_0933,list_pa,2021.1.4,59.91726623832218,
,,20,0,0,0,0,,,,,0,10,10,10,,,166.89825579999888,None,,001,2021_May_04_0933,list_pa,2021.1.4,59.91726623832218,
,,19,0,0,0,0,,,,,0,11,11,11,,,167.89876630000072,None,,001,2021_May_04_0933,list_pa,2021.1.4,59.91726623832218,
,,18,0,0,0,0,,,,,0,12,12,12,,,168.89880450000055,None,,001,2021_May_04_0933,list_pa,2021.1.4,59.91726623832218,
,,17,0,0,0,0,,,,,0,13,13,13,,,169.89963810000336,None,,001,2021_May_04_0933,list_pa,2021.1.4,59.91726623832218,
,,16,0,0,0,0,,,,,0,14,14,14,,,170.90038099999947,None,,001,2021_May_04_0933,list_pa,2021.1.4,59.91726623832218,
,,15,0,0,0,0,,,,,0,15,15,15,,,171.90040150000277,None,,001,2021_May_04_0933,list_pa,2021.1.4,59.91726623832218,
,,14,0,0,0,0,,,,,0,16,16,16,,,172.9009619999997,None,,001,2021_May_04_0933,list_pa,2021.1.4,59.91726623832218,
,,13,0,0,0,0,,,,,0,17,17,17,,,173.90045790000295,None,,001,2021_May_04_0933,list_pa,2021.1.4,59.91726623832218,
,,12,0,0,0,0,,,,,0,18,18,18,,,174.90027579999878,None,,001,2021_May_04_0933,list_pa,2021.1.4,59.91726623832218,
,,11,0,0,0,0,,,,,0,19,19,19,,,175.90045429999736,None,,001,2021_May_04_0933,list_pa,2021.1.4,59.91726623832218,
,,10,0,0,0,0,,,,,0,20,20,20,,,176.90079430000333,None,,001,2021_May_04_0933,list_pa,2021.1.4,59.91726623832218,
,,9,0,0,0,0,,,,,0,21,21,21,,,177.88464430000022,None,,001,2021_May_04_0933,list_pa,2021.1.4,59.91726623832218,
,,8,0,0,0,0,,,,,0,22,22,22,,,178.88455180000165,None,,001,2021_May_04_0933,list_pa,2021.1.4,59.91726623832218,
,,7,0,0,0,0,,,,,0,23,23,23,,,179.88469749999786,None,,001,2021_May_04_0933,list_pa,2021.1.4,59.91726623832218,
,,6,0,0,0,0,,,,,0,24,24,24,,,180.8851480000012,None,,001,2021_May_04_0933,list_pa,2021.1.4,59.91726623832218,
,,5,0,0,0,0,,,,,0,25,25,25,,,181.88515349999943,None,,001,2021_May_04_0933,list_pa,2021.1.4,59.91726623832218,
,,4,0,0,0,0,,,,,0,26,26,26,,,182.88571780000348,None,,001,2021_May_04_0933,list_pa,2021.1.4,59.91726623832218,
,,3,0,0,0,0,,,,,0,27,27,27,,,183.88576319999993,None,,001,2021_May_04_0933,list_pa,2021.1.4,59.91726623832218,
,,2,0,0,0,0,,,,,0,28,28,28,,,184.88577700000315,None,,001,2021_May_04_0933,list_pa,2021.1.4,59.91726623832218,
,,1,0,0,0,0,,,,,0,29,29,29,,,185.88557479999872,None,,001,2021_May_04_0933,list_pa,2021.1.4,59.91726623832218,
,,0,0,0,0,0,,,,,0,30,30,30,,,186.88633639999898,None,,001,2021_May_04_0933,list_pa,2021.1.4,59.91726623832218,
,,,0,0,0,0,,,,,,,,,,,,,,001,2021_May_04_0933,list_pa,2021.1.4,59.91726623832218,
sounds/gauche.ogg,0.7,,1,0,1,0,0,0,0,20,,,,,188.60430003000002,None,,,,001,2021_May_04_0933,list_pa,2021.1.4,59.91726623832218,
sounds/droite.ogg,0.7,,1,0,1,0,0,1,1,37,,,,,190.1055189299972,189.419996800003,,,,001,2021_May_04_0933,list_pa,2021.1.4,59.91726623832218,
sounds/gauche.ogg,0.7,,1,0,1,0,0,2,2,2,,,,,191.60520733000376,190.91976180000347,,,,001,2021_May_04_0933,list_pa,2021.1.4,59.91726623832218,
sounds/droite.ogg,0.7,,1,0,1,0,0,3,3,34,,,,,193.1060617299976,192.42040239999915,,,,001,2021_May_04_0933,list_pa,2021.1.4,59.91726623832218,
sounds/gauche.ogg,0.7,,1,0,1,0,0,4,4,5,,,,,194.6056230299968,193.92138149999664,,,,001,2021_May_04_0933,list_pa,2021.1.4,59.91726623832218,
sounds/gauche.ogg,0.7,,1,0,1,0,0,5,5,18,,,,,196.10619562999855,None,,,,001,2021_May_04_0933,list_pa,2021.1.4,59.91726623832218,
sounds/droite.ogg,0.7,,1,0,1,0,0,6,6,43,,,,,197.60650193000257,196.92130680000264,,,,001,2021_May_04_0933,list_pa,2021.1.4,59.91726623832218,
sounds/droite.ogg,0.7,,1,0,1,0,0,7,7,48,,,,,199.10734032999827,198.42165730000124,,,,001,2021_May_04_0933,list_pa,2021.1.4,59.91726623832218,
sounds/droite.ogg,0.7,,1,0,1,0,0,8,8,41,,,,,200.60675462999862,199.92173170000024,,,,001,2021_May_04_0933,list_pa,2021.1.4,59.91726623832218,
sounds/gauche.ogg,0.7,,1,0,1,0,0,9,9,23,,,,,202.10782382999824,None,,,,001,2021_May_04_0933,list_pa,2021.1.4,59.91726623832218,
sounds/gauche.ogg,0.7,,1,0,1,0,0,10,10,10,,,,,203.60775263000178,202.92260979999992,,,,001,2021_May_04_0933,list_pa,2021.1.4,59.91726623832218,
sounds/droite.ogg,0.7,,1,0,1,0,0,11,11,46,,,,,205.10778983000128,204.42309810000006,,,,001,2021_May_04_0933,list_pa,2021.1.4,59.91726623832218,
sounds/droite.ogg,0.7,,1,0,1,0,0,12,12,38,,,,,206.60830352999838,205.92330159999983,,,,001,2021_May_04_0933,list_pa,2021.1.4,59.91726623832218,
sounds/droite.ogg,0.7,,1,0,1,0,0,13,13,29,,,,,208.10913613000085,207.42377909999777,,,,001,2021_May_04_0933,list_pa,2021.1.4,59.91726623832218,
sounds/gauche.ogg,0.7,,1,0,1,0,0,14,14,8,,,,,209.60900063000227,208.92394100000092,,,,001,2021_May_04_0933,list_pa,2021.1.4,59.91726623832218,
sounds/droite.ogg,0.7,,1,0,1,0,0,15,15,47,,,,,211.1091007300005,210.4240609999979,,,,001,2021_May_04_0933,list_pa,2021.1.4,59.91726623832218,
sounds/droite.ogg,0.7,,1,0,1,0,0,16,16,39,,,,,212.6093261299997,211.9244131000014,,,,001,2021_May_04_0933,list_pa,2021.1.4,59.91726623832218,
sounds/droite.ogg,0.7,,1,0,1,0,0,17,17,44,,,,,214.10965623000303,213.42427360000147,,,,001,2021_May_04_0933,list_pa,2021.1.4,59.91726623832218,
sounds/gauche.ogg,0.7,,1,0,1,0,0,18,18,16,,,,,215.61014942999682,214.92489249999926,,,,001,2021_May_04_0933,list_pa,2021.1.4,59.91726623832218,
sounds/droite.ogg,0.7,,1,0,1,0,0,19,19,27,,,,,217.11080612999868,216.42510710000352,,,,001,2021_May_04_0933,list_pa,2021.1.4,59.91726623832218,
sounds/gauche.ogg,0.7,,1,0,1,0,0,20,20,7,,,,,218.6105446300011,None,,,,001,2021_May_04_0933,list_pa,2021.1.4,59.91726623832218,
sounds/droite.ogg,0.7,,1,0,1,0,0,21,21,49,,,,,220.11065602999807,219.42517049999879,,,,001,2021_May_04_0933,list_pa,2021.1.4,59.91726623832218,
sounds/gauche.ogg,0.7,,1,0,1,0,0,22,22,6,,,,,221.61144442999867,220.92669890000252,,,,001,2021_May_04_0933,list_pa,2021.1.4,59.91726623832218,
sounds/gauche.ogg,0.7,,1,0,1,0,0,23,23,12,,,,,223.11138902999883,None,,,,001,2021_May_04_0933,list_pa,2021.1.4,59.91726623832218,
sounds/droite.ogg,0.7,,1,0,1,0,0,24,24,28,,,,,224.61171643000344,223.92724640000233,,,,001,2021_May_04_0933,list_pa,2021.1.4,59.91726623832218,
sounds/gauche.ogg,0.7,,1,0,1,0,0,25,25,11,,,,,226.1121728300008,225.4272723000031,,,,001,2021_May_04_0933,list_pa,2021.1.4,59.91726623832218,
sounds/droite.ogg,0.7,,1,0,1,0,0,26,26,36,,,,,227.61224363000147,226.9277654999969,,,,001,2021_May_04_0933,list_pa,2021.1.4,59.91726623832218,
sounds/droite.ogg,0.7,,1,0,1,0,0,27,27,26,,,,,229.1128038300034,228.42794490000233,,,,001,2021_May_04_0933,list_pa,2021.1.4,59.91726623832218,
sounds/gauche.ogg,0.7,,1,0,1,0,0,28,28,0,,,,,230.6119544299967,229.92836589999933,,,,001,2021_May_04_0933,list_pa,2021.1.4,59.91726623832218,
sounds/gauche.ogg,0.7,,1,0,1,0,0,29,29,24,,,,,232.11397672999956,231.4289518000005,,,,001,2021_May_04_0933,list_pa,2021.1.4,59.91726623832218,
sounds/droite.ogg,0.7,,1,0,1,0,0,30,30,25,,,,,233.61399292999923,232.92854290000105,,,,001,2021_May_04_0933,list_pa,2021.1.4,59.91726623832218,
sounds/gauche.ogg,0.7,,1,0,1,0,0,31,31,22,,,,,235.11422183000323,234.42937540000275,,,,001,2021_May_04_0933,list_pa,2021.1.4,59.91726623832218,
sounds/droite.ogg,0.7,,1,0,1,0,0,32,32,45,,,,,236.61369903000232,235.9298259999996,,,,001,2021_May_04_0933,list_pa,2021.1.4,59.91726623832218,
sounds/gauche.ogg,0.7,,1,0,1,0,0,33,33,14,,,,,238.11483062999687,237.43051869999908,,,,001,2021_May_04_0933,list_pa,2021.1.4,59.91726623832218,
sounds/gauche.ogg,0.7,,1,0,1,0,0,34,34,1,,,,,239.61501743000045,None,,,,001,2021_May_04_0933,list_pa,2021.1.4,59.91726623832218,
sounds/droite.ogg,0.7,,1,0,1,0,0,35,35,33,,,,,241.11529712999837,240.43104360000143,,,,001,2021_May_04_0933,list_pa,2021.1.4,59.91726623832218,
sounds/gauche.ogg,0.7,,1,0,1,0,0,36,36,21,,,,,242.61570673000315,241.93109930000355,,,,001,2021_May_04_0933,list_pa,2021.1.4,59.91726623832218,
sounds/droite.ogg,0.7,,1,0,1,0,0,37,37,31,,,,,244.115645029999,243.43083019999904,,,,001,2021_May_04_0933,list_pa,2021.1.4,59.91726623832218,
sounds/gauche.ogg,0.7,,1,0,1,0,0,38,38,3,,,,,245.616658430003,None,,,,001,2021_May_04_0933,list_pa,2021.1.4,59.91726623832218,
sounds/droite.ogg,0.7,,1,0,1,0,0,39,39,42,,,,,247.11712042999935,246.43132219999825,,,,001,2021_May_04_0933,list_pa,2021.1.4,59.91726623832218,
sounds/gauche.ogg,0.7,,1,0,1,0,0,40,40,15,,,,,248.6174644299994,247.93164350000006,,,,001,2021_May_04_0933,list_pa,2021.1.4,59.91726623832218,
sounds/gauche.ogg,0.7,,1,0,1,0,0,41,41,17,,,,,250.11770682999705,249.43187670000043,,,,001,2021_May_04_0933,list_pa,2021.1.4,59.91726623832218,
sounds/gauche.ogg,0.7,,1,0,1,0,0,42,42,19,,,,,251.61746643000006,250.93213490000198,,,,001,2021_May_04_0933,list_pa,2021.1.4,59.91726623832218,
sounds/droite.ogg,0.7,,1,0,1,0,0,43,43,30,,,,,253.1186354300029,None,,,,001,2021_May_04_0933,list_pa,2021.1.4,59.91726623832218,
sounds/droite.ogg,0.7,,1,0,1,0,0,44,44,35,,,,,254.61805572999802,253.93299899999693,,,,001,2021_May_04_0933,list_pa,2021.1.4,59.91726623832218,
sounds/gauche.ogg,0.7,,1,0,1,0,0,45,45,13,,,,,256.11835053000175,255.43355310000334,,,,001,2021_May_04_0933,list_pa,2021.1.4,59.91726623832218,
sounds/gauche.ogg,0.7,,1,0,1,0,0,46,46,9,,,,,257.6186815299974,None,,,,001,2021_May_04_0933,list_pa,2021.1.4,59.91726623832218,
sounds/gauche.ogg,0.7,,1,0,1,0,0,47,47,4,,,,,259.11877313000366,258.4339264000009,,,,001,2021_May_04_0933,list_pa,2021.1.4,59.91726623832218,
sounds/droite.ogg,0.7,,1,0,1,0,0,48,48,40,,,,,260.6189709300037,259.9339553000027,,,,001,2021_May_04_0933,list_pa,2021.1.4,59.91726623832218,
sounds/droite.ogg,0.7,,1,0,1,0,0,49,49,32,,,,,262.11957573000325,261.43465390000347,,,,001,2021_May_04_0933,list_pa,2021.1.4,59.91726623832218,
,,30,1,0,1,0,,,,,0,0,0,0,,,262.9501788999987,None,,001,2021_May_04_0933,list_pa,2021.1.4,59.91726623832218,
,,29,1,0,1,0,,,,,0,1,1,1,,,263.9517368000015,None,,001,2021_May_04_0933,list_pa,2021.1.4,59.91726623832218,
,,28,1,0,1,0,,,,,0,2,2,2,,,264.9517104999977,None,,001,2021_May_04_0933,list_pa,2021.1.4,59.91726623832218,
,,27,1,0,1,0,,,,,0,3,3,3,,,265.95189630000095,None,,001,2021_May_04_0933,list_pa,2021.1.4,59.91726623832218,
,,26,1,0,1,0,,,,,0,4,4,4,,,266.9521109999987,None,,001,2021_May_04_0933,list_pa,2021.1.4,59.91726623832218,
,,25,1,0,1,0,,,,,0,5,5,5,,,267.9518117999978,None,,001,2021_May_04_0933,list_pa,2021.1.4,59.91726623832218,
,,24,1,0,1,0,,,,,0,6,6,6,,,268.95236139999906,None,,001,2021_May_04_0933,list_pa,2021.1.4,59.91726623832218,
,,23,1,0,1,0,,,,,0,7,7,7,,,269.95287429999735,None,,001,2021_May_04_0933,list_pa,2021.1.4,59.91726623832218,
,,22,1,0,1,0,,,,,0,8,8,8,,,270.9534188999969,None,,001,2021_May_04_0933,list_pa,2021.1.4,59.91726623832218,
,,21,1,0,1,0,,,,,0,9,9,9,,,271.9529294000022,None,,001,2021_May_04_0933,list_pa,2021.1.4,59.91726623832218,
,,20,1,0,1,0,,,,,0,10,10,10,,,272.9531308000005,None,,001,2021_May_04_0933,list_pa,2021.1.4,59.91726623832218,
,,19,1,0,1,0,,,,,0,11,11,11,,,273.9546921000001,None,,001,2021_May_04_0933,list_pa,2021.1.4,59.91726623832218,
,,18,1,0,1,0,,,,,0,12,12,12,,,274.95395319999807,None,,001,2021_May_04_0933,list_pa,2021.1.4,59.91726623832218,
,,17,1,0,1,0,,,,,0,13,13,13,,,275.9541384999975,None,,001,2021_May_04_0933,list_pa,2021.1.4,59.91726623832218,
,,16,1,0,1,0,,,,,0,14,14,14,,,276.95434620000015,None,,001,2021_May_04_0933,list_pa,2021.1.4,59.91726623832218,
,,15,1,0,1,0,,,,,0,15,15,15,,,277.9546532000022,None,,001,2021_May_04_0933,list_pa,2021.1.4,59.91726623832218,
,,14,1,0,1,0,,,,,0,16,16,16,,,278.9546934000027,None,,001,2021_May_04_0933,list_pa,2021.1.4,59.91726623832218,
,,13,1,0,1,0,,,,,0,17,17,17,,,279.9383033999984,None,,001,2021_May_04_0933,list_pa,2021.1.4,59.91726623832218,
,,12,1,0,1,0,,,,,0,18,18,18,,,280.93893679999746,None,,001,2021_May_04_0933,list_pa,2021.1.4,59.91726623832218,
,,11,1,0,1,0,,,,,0,19,19,19,,,281.9387639999986,None,,001,2021_May_04_0933,list_pa,2021.1.4,59.91726623832218,
,,10,1,0,1,0,,,,,0,20,20,20,,,282.93897460000153,None,,001,2021_May_04_0933,list_pa,2021.1.4,59.91726623832218,
,,9,1,0,1,0,,,,,0,21,21,21,,,283.9395799999984,None,,001,2021_May_04_0933,list_pa,2021.1.4,59.91726623832218,
,,8,1,0,1,0,,,,,0,22,22,22,,,284.93965089999983,None,,001,2021_May_04_0933,list_pa,2021.1.4,59.91726623832218,
,,7,1,0,1,0,,,,,0,23,23,23,,,285.93972439999925,None,,001,2021_May_04_0933,list_pa,2021.1.4,59.91726623832218,
,,6,1,0,1,0,,,,,0,24,24,24,,,286.93986459999724,None,,001,2021_May_04_0933,list_pa,2021.1.4,59.91726623832218,
,,5,1,0,1,0,,,,,0,25,25,25,,,287.9403682999982,None,,001,2021_May_04_0933,list_pa,2021.1.4,59.91726623832218,
,,4,1,0,1,0,,,,,0,26,26,26,,,288.94015319999744,None,,001,2021_May_04_0933,list_pa,2021.1.4,59.91726623832218,
,,3,1,0,1,0,,,,,0,27,27,27,,,289.94037489999755,None,,001,2021_May_04_0933,list_pa,2021.1.4,59.91726623832218,
,,2,1,0,1,0,,,,,0,28,28,28,,,290.940240099997,None,,001,2021_May_04_0933,list_pa,2021.1.4,59.91726623832218,
,,1,1,0,1,0,,,,,0,29,29,29,,,291.94090660000074,None,,001,2021_May_04_0933,list_pa,2021.1.4,59.91726623832218,
,,0,1,0,1,0,,,,,0,30,30,30,,,292.94126349999715,None,,001,2021_May_04_0933,list_pa,2021.1.4,59.91726623832218,
,,,1,0,1,0,,,,,,,,,,,,,,001,2021_May_04_0933,list_pa,2021.1.4,59.91726623832218,
sounds/droite.ogg,0.7,,2,0,2,0,0,0,0,37,,,,,294.659491230001,None,,,,001,2021_May_04_0933,list_pa,2021.1.4,59.91726623832218,
sounds/droite.ogg,0.7,,2,0,2,0,0,1,1,29,,,,,296.1589828300006,295.47478579999733,,,,001,2021_May_04_0933,list_pa,2021.1.4,59.91726623832218,
sounds/droite.ogg,0.7,,2,0,2,0,0,2,2,47,,,,,297.6599785300008,296.9751863999991,,,,001,2021_May_04_0933,list_pa,2021.1.4,59.91726623832218,
sounds/gauche.ogg,0.7,,2,0,2,0,0,3,3,12,,,,,299.16009852999775,298.47568319999846,,,,001,2021_May_04_0933,list_pa,2021.1.4,59.91726623832218,
sounds/droite.ogg,0.7,,2,0,2,0,0,4,4,32,,,,,300.66042483000126,299.976069999997,,,,001,2021_May_04_0933,list_pa,2021.1.4,59.91726623832218,
sounds/droite.ogg,0.7,,2,0,2,0,0,5,5,40,,,,,302.16076072999783,301.4757940999989,,,,001,2021_May_04_0933,list_pa,2021.1.4,59.91726623832218,
sounds/droite.ogg,0.7,,2,0,2,0,0,6,6,34,,,,,303.66144913000096,302.9766617999994,,,,001,2021_May_04_0933,list_pa,2021.1.4,59.91726623832218,
sounds/gauche.ogg,0.7,,2,0,2,0,0,7,7,18,,,,,305.1613153300008,304.4767015000034,,,,001,2021_May_04_0933,list_pa,2021.1.4,59.91726623832218,
sounds/droite.ogg,0.7,,2,0,2,0,0,8,8,31,,,,,306.6620143299973,305.9768851999979,,,,001,2021_May_04_0933,list_pa,2021.1.4,59.91726623832218,
sounds/gauche.ogg,0.7,,2,0,2,0,0,9,9,13,,,,,308.1624286300015,307.47755920000054,,,,001,2021_May_04_0933,list_pa,2021.1.4,59.91726623832218,
sounds/droite.ogg,0.7,,2,0,2,0,0,10,10,38,,,,,309.66260582999746,308.9778951999979,,,,001,2021_May_04_0933,list_pa,2021.1.4,59.91726623832218,
sounds/droite.ogg,0.7,,2,0,2,0,0,11,11,41,,,,,311.16293772999995,310.47799400000076,,,,001,2021_May_04_0933,list_pa,2021.1.4,59.91726623832218,
sounds/droite.ogg,0.7,,2,0,2,0,0,12,12,33,,,,,312.6634654300018,311.9783763000014,,,,001,2021_May_04_0933,list_pa,2021.1.4,59.91726623832218,
sounds/gauche.ogg,0.7,,2,0,2,0,0,13,13,15,,,,,314.1635465300009,None,,,,001,2021_May_04_0933,list_pa,2021.1.4,59.91726623832218,
sounds/gauche.ogg,0.7,,2,0,2,0,0,14,14,14,,,,,315.66373252999836,314.97889009999926,,,,001,2021_May_04_0933,list_pa,2021.1.4,59.91726623832218,
sounds/droite.ogg,0.7,,2,0,2,0,0,15,15,30,,,,,317.1646254300016,316.47850769999786,,,,001,2021_May_04_0933,list_pa,2021.1.4,59.91726623832218,
sounds/gauche.ogg,0.7,,2,0,2,0,0,16,16,5,,,,,318.66220452999767,None,,,,001,2021_May_04_0933,list_pa,2021.1.4,59.91726623832218,
sounds/gauche.ogg,0.7,,2,0,2,0,0,17,17,19,,,,,320.1647544300016,319.4794019000037,,,,001,2021_May_04_0933,list_pa,2021.1.4,59.91726623832218,
sounds/gauche.ogg,0.7,,2,0,2,0,0,18,18,11,,,,,321.66515732999903,320.9809793000022,,,,001,2021_May_04_0933,list_pa,2021.1.4,59.91726623832218,
sounds/droite.ogg,0.7,,2,0,2,0,0,19,19,46,,,,,323.16533792999905,322.4800097999978,,,,001,2021_May_04_0933,list_pa,2021.1.4,59.91726623832218,
sounds/gauche.ogg,0.7,,2,0,2,0,0,20,20,16,,,,,324.66572703000054,323.98114350000105,,,,001,2021_May_04_0933,list_pa,2021.1.4,59.91726623832218,
sounds/droite.ogg,0.7,,2,0,2,0,0,21,21,26,,,,,326.1658780300007,325.4810385000019,,,,001,2021_May_04_0933,list_pa,2021.1.4,59.91726623832218,
sounds/droite.ogg,0.7,,2,0,2,0,0,22,22,42,,,,,327.6666537299992,326.9810301999969,,,,001,2021_May_04_0933,list_pa,2021.1.4,59.91726623832218,
sounds/droite.ogg,0.7,,2,0,2,0,0,23,23,39,,,,,329.16771643000027,328.4815679000021,,,,001,2021_May_04_0933,list_pa,2021.1.4,59.91726623832218,
sounds/droite.ogg,0.7,,2,0,2,0,0,24,24,48,,,,,330.6671607300035,329.981644200001,,,,001,2021_May_04_0933,list_pa,2021.1.4,59.91726623832218,
sounds/gauche.ogg,0.7,,2,0,2,0,0,25,25,23,,,,,332.16764103000094,None,,,,001,2021_May_04_0933,list_pa,2021.1.4,59.91726623832218,
sounds/gauche.ogg,0.7,,2,0,2,0,0,26,26,10,,,,,333.6682281299967,332.98257100000046,,,,001,2021_May_04_0933,list_pa,2021.1.4,59.91726623832218,
sounds/droite.ogg,0.7,,2,0,2,0,0,27,27,28,,,,,335.1674823300003,334.48270980000234,,,,001,2021_May_04_0933,list_pa,2021.1.4,59.91726623832218,
sounds/gauche.ogg,0.7,,2,0,2,0,0,28,28,4,,,,,336.6678826299998,None,,,,001,2021_May_04_0933,list_pa,2021.1.4,59.91726623832218,
sounds/gauche.ogg,0.7,,2,0,2,0,0,29,29,21,,,,,338.1682008299998,337.4833104999998,,,,001,2021_May_04_0933,list_pa,2021.1.4,59.91726623832218,
sounds/gauche.ogg,0.7,,2,0,2,0,0,30,30,3,,,,,339.6679775300021,338.98334700000123,,,,001,2021_May_04_0933,list_pa,2021.1.4,59.91726623832218,
sounds/droite.ogg,0.7,,2,0,2,0,0,31,31,43,,,,,341.1687995299966,340.4841324000008,,,,001,2021_May_04_0933,list_pa,2021.1.4,59.91726623832218,
sounds/gauche.ogg,0.7,,2,0,2,0,0,32,32,6,,,,,342.66908182999975,341.9841708000022,,,,001,2021_May_04_0933,list_pa,2021.1.4,59.91726623832218,
sounds/gauche.ogg,0.7,,2,0,2,0,0,33,33,9,,,,,344.16949863000116,343.48463569999876,,,,001,2021_May_04_0933,list_pa,2021.1.4,59.91726623832218,
sounds/gauche.ogg,0.7,,2,0,2,0,0,34,34,2,,,,,345.66959633000295,344.98463900000206,,,,001,2021_May_04_0933,list_pa,2021.1.4,59.91726623832218,
sounds/gauche.ogg,0.7,,2,0,2,0,0,35,35,22,,,,,347.16981863000035,346.4852663999991,,,,001,2021_May_04_0933,list_pa,2021.1.4,59.91726623832218,
sounds/gauche.ogg,0.7,,2,0,2,0,0,36,36,0,,,,,348.6707812300032,347.9851173999996,,,,001,2021_May_04_0933,list_pa,2021.1.4,59.91726623832218,
sounds/droite.ogg,0.7,,2,0,2,0,0,37,37,27,,,,,350.17108883000253,349.48575800000253,,,,001,2021_May_04_0933,list_pa,2021.1.4,59.91726623832218,
sounds/gauche.ogg,0.7,,2,0,2,0,0,38,38,20,,,,,351.6707287300036,350.9864177999989,,,,001,2021_May_04_0933,list_pa,2021.1.4,59.91726623832218,
sounds/gauche.ogg,0.7,,2,0,2,0,0,39,39,8,,,,,353.1710515300023,None,,,,001,2021_May_04_0933,list_pa,2021.1.4,59.91726623832218,
sounds/droite.ogg,0.7,,2,0,2,0,0,40,40,35,,,,,354.67132612999774,353.9870052999977,,,,001,2021_May_04_0933,list_pa,2021.1.4,59.91726623832218,
sounds/droite.ogg,0.7,,2,0,2,0,0,41,41,49,,,,,356.17177653000033,355.4871389999971,,,,001,2021_May_04_0933,list_pa,2021.1.4,59.91726623832218,
sounds/droite.ogg,0.7,,2,0,2,0,0,42,42,36,,,,,357.6722136300035,356.98686050000106,,,,001,2021_May_04_0933,list_pa,2021.1.4,59.91726623832218,
sounds/gauche.ogg,0.7,,2,0,2,0,0,43,43,24,,,,,359.1726071300021,358.4879196999973,,,,001,2021_May_04_0933,list_pa,2021.1.4,59.91726623832218,
sounds/droite.ogg,0.7,,2,0,2,0,0,44,44,45,,,,,360.6726921300018,359.9879424000028,,,,001,2021_May_04_0933,list_pa,2021.1.4,59.91726623832218,
sounds/gauche.ogg,0.7,,2,0,2,0,0,45,45,17,,,,,362.17317733000016,361.48802550000255,,,,001,2021_May_04_0933,list_pa,2021.1.4,59.91726623832218,
sounds/droite.ogg,0.7,,2,0,2,0,0,46,46,44,,,,,363.6739684299995,362.98805690000154,,,,001,2021_May_04_0933,list_pa,2021.1.4,59.91726623832218,
sounds/gauche.ogg,0.7,,2,0,2,0,0,47,47,7,,,,,365.17401792999806,364.48891079999885,,,,001,2021_May_04_0933,list_pa,2021.1.4,59.91726623832218,
sounds/gauche.ogg,0.7,,2,0,2,0,0,48,48,1,,,,,366.67389172999754,365.98874839999917,,,,001,2021_May_04_0933,list_pa,2021.1.4,59.91726623832218,
sounds/droite.ogg,0.7,,2,0,2,0,0,49,49,25,,,,,368.1746006299967,367.4896185000034,,,,001,2021_May_04_0933,list_pa,2021.1.4,59.91726623832218,
,,30,2,0,2,0,,,,,0,0,0,0,,,369.00510409999697,None,,001,2021_May_04_0933,list_pa,2021.1.4,59.91726623832218,
,,29,2,0,2,0,,,,,0,1,1,1,,,370.00608210000064,None,,001,2021_May_04_0933,list_pa,2021.1.4,59.91726623832218,
,,28,2,0,2,0,,,,,0,2,2,2,,,371.00655499999993,None,,001,2021_May_04_0933,list_pa,2021.1.4,59.91726623832218,
,,27,2,0,2,0,,,,,0,3,3,3,,,372.0066555000012,None,,001,2021_May_04_0933,list_pa,2021.1.4,59.91726623832218,
,,26,2,0,2,0,,,,,0,4,4,4,,,373.0072685999985,None,,001,2021_May_04_0933,list_pa,2021.1.4,59.91726623832218,
,,25,2,0,2,0,,,,,0,5,5,5,,,374.00745520000055,None,,001,2021_May_04_0933,list_pa,2021.1.4,59.91726623832218,
,,24,2,0,2,0,,,,,0,6,6,6,,,375.00760620000074,None,,001,2021_May_04_0933,list_pa,2021.1.4,59.91726623832218,
,,23,2,0,2,0,,,,,0,7,7,7,,,376.0079341000019,None,,001,2021_May_04_0933,list_pa,2021.1.4,59.91726623832218,
,,22,2,0,2,0,,,,,0,8,8,8,,,377.00809480000316,None,,001,2021_May_04_0933,list_pa,2021.1.4,59.91726623832218,
,,21,2,0,2,0,,,,,0,9,9,9,,,377.99145670000144,None,,001,2021_May_04_0933,list_pa,2021.1.4,59.91726623832218,
,,20,2,0,2,0,,,,,0,10,10,10,,,379.0081285999986,None,,001,2021_May_04_0933,list_pa,2021.1.4,59.91726623832218,
,,19,2,0,2,0,,,,,0,11,11,11,,,379.99179159999767,None,,001,2021_May_04_0933,list_pa,2021.1.4,59.91726623832218,
,,18,2,0,2,0,,,,,0,12,12,12,,,380.9920779000022,None,,001,2021_May_04_0933,list_pa,2021.1.4,59.91726623832218,
,,17,2,0,2,0,,,,,0,13,13,13,,,381.9919566000026,None,,001,2021_May_04_0933,list_pa,2021.1.4,59.91726623832218,
,,16,2,0,2,0,,,,,0,14,14,14,,,382.99247769999783,None,,001,2021_May_04_0933,list_pa,2021.1.4,59.91726623832218,
,,15,2,0,2,0,,,,,0,15,15,15,,,383.992528499999,None,,001,2021_May_04_0933,list_pa,2021.1.4,59.91726623832218,
,,14,2,0,2,0,,,,,0,16,16,16,,,384.992728600002,None,,001,2021_May_04_0933,list_pa,2021.1.4,59.91726623832218,
,,13,2,0,2,0,,,,,0,17,17,17,,,385.99288949999755,None,,001,2021_May_04_0933,list_pa,2021.1.4,59.91726623832218,
,,12,2,0,2,0,,,,,0,18,18,18,,,386.9931499000013,None,,001,2021_May_04_0933,list_pa,2021.1.4,59.91726623832218,
,,11,2,0,2,0,,,,,0,19,19,19,,,387.99357130000135,None,,001,2021_May_04_0933,list_pa,2021.1.4,59.91726623832218,
,,10,2,0,2,0,,,,,0,20,20,20,,,388.99361710000085,None,,001,2021_May_04_0933,list_pa,2021.1.4,59.91726623832218,
,,9,2,0,2,0,,,,,0,21,21,21,,,389.99373699999705,None,,001,2021_May_04_0933,list_pa,2021.1.4,59.91726623832218,
,,8,2,0,2,0,,,,,0,22,22,22,,,390.9940837000031,None,,001,2021_May_04_0933,list_pa,2021.1.4,59.91726623832218,
,,7,2,0,2,0,,,,,0,23,23,23,,,391.9947347999987,None,,001,2021_May_04_0933,list_pa,2021.1.4,59.91726623832218,
,,6,2,0,2,0,,,,,0,24,24,24,,,392.9945254999984,None,,001,2021_May_04_0933,list_pa,2021.1.4,59.91726623832218,
,,5,2,0,2,0,,,,,0,25,25,25,,,393.994944500002,None,,001,2021_May_04_0933,list_pa,2021.1.4,59.91726623832218,
,,4,2,0,2,0,,,,,0,26,26,26,,,394.99517639999976,None,,001,2021_May_04_0933,list_pa,2021.1.4,59.91726623832218,
,,3,2,0,2,0,,,,,0,27,27,27,,,395.9953145999971,None,,001,2021_May_04_0933,list_pa,2021.1.4,59.91726623832218,
,,2,2,0,2,0,,,,,0,28,28,28,,,396.99576810000144,None,,001,2021_May_04_0933,list_pa,2021.1.4,59.91726623832218,
,,1,2,0,2,0,,,,,0,29,29,29,,,397.9957693000033,None,,001,2021_May_04_0933,list_pa,2021.1.4,59.91726623832218,
,,0,2,0,2,0,,,,,0,30,30,30,,,398.9955667000031,None,,001,2021_May_04_0933,list_pa,2021.1.4,59.91726623832218,
,,,2,0,2,0,,,,,,,,,,,,,,001,2021_May_04_0933,list_pa,2021.1.4,59.91726623832218,
sounds/droite.ogg,0.7,,3,0,3,0,0,0,0,40,,,,,400.71450302999654,None,,,,001,2021_May_04_0933,list_pa,2021.1.4,59.91726623832218,
sounds/gauche.ogg,0.7,,3,0,3,0,0,1,1,17,,,,,402.214871630002,401.52977510000346,,,,001,2021_May_04_0933,list_pa,2021.1.4,59.91726623832218,
sounds/droite.ogg,0.7,,3,0,3,0,0,2,2,48,,,,,403.71519312999806,403.0298956999977,,,,001,2021_May_04_0933,list_pa,2021.1.4,59.91726623832218,
sounds/droite.ogg,0.7,,3,0,3,0,0,3,3,47,,,,,405.229220329997,None,,,,001,2021_May_04_0933,list_pa,2021.1.4,59.91726623832218,
sounds/droite.ogg,0.7,,3,0,3,0,0,4,4,36,,,,,406.7303922300001,406.0473972999971,,,,001,2021_May_04_0933,list_pa,2021.1.4,59.91726623832218,
sounds/droite.ogg,0.7,,3,0,3,0,0,5,5,26,,,,,408.23228443000187,None,,,,001,2021_May_04_0933,list_pa,2021.1.4,59.91726623832218,
sounds/droite.ogg,0.7,,3,0,3,0,0,6,6,39,,,,,409.73276683000074,409.0477506000025,,,,001,2021_May_04_0933,list_pa,2021.1.4,59.91726623832218,
sounds/gauche.ogg,0.7,,3,0,3,0,0,7,7,24,,,,,411.2334257299975,410.5485254000014,,,,001,2021_May_04_0933,list_pa,2021.1.4,59.91726623832218,
sounds/gauche.ogg,0.7,,3,0,3,0,0,8,8,9,,,,,412.7334959300009,None,,,,001,2021_May_04_0933,list_pa,2021.1.4,59.91726623832218,
sounds/gauche.ogg,0.7,,3,0,3,0,0,9,9,18,,,,,414.2339086300002,413.5486119999987,,,,001,2021_May_04_0933,list_pa,2021.1.4,59.91726623832218,
sounds/gauche.ogg,0.7,,3,0,3,0,0,10,10,13,,,,,415.73414802999685,415.04862850000063,,,,001,2021_May_04_0933,list_pa,2021.1.4,59.91726623832218,
sounds/droite.ogg,0.7,,3,0,3,0,0,11,11,42,,,,,417.2343895300022,416.5495441000021,,,,001,2021_May_04_0933,list_pa,2021.1.4,59.91726623832218,
sounds/gauche.ogg,0.7,,3,0,3,0,0,12,12,14,,,,,418.73486253000226,418.04958330000227,,,,001,2021_May_04_0933,list_pa,2021.1.4,59.91726623832218,
sounds/droite.ogg,0.7,,3,0,3,0,0,13,13,35,,,,,420.2353333300001,419.5504073999982,,,,001,2021_May_04_0933,list_pa,2021.1.4,59.91726623832218,
sounds/droite.ogg,0.7,,3,0,3,0,0,14,14,49,,,,,421.73533962999716,421.0510248999999,,,,001,2021_May_04_0933,list_pa,2021.1.4,59.91726623832218,
sounds/droite.ogg,0.7,,3,0,3,0,0,15,15,30,,,,,423.235738329999,422.5506775000031,,,,001,2021_May_04_0933,list_pa,2021.1.4,59.91726623832218,
sounds/gauche.ogg,0.7,,3,0,3,0,0,16,16,19,,,,,424.7360222299998,None,,,,001,2021_May_04_0933,list_pa,2021.1.4,59.91726623832218,
sounds/droite.ogg,0.7,,3,0,3,0,0,17,17,44,,,,,426.23656253000297,None,,,,001,2021_May_04_0933,list_pa,2021.1.4,59.91726623832218,
sounds/gauche.ogg,0.7,,3,0,3,0,0,18,18,10,,,,,427.7366143299972,427.0515305000008,,,,001,2021_May_04_0933,list_pa,2021.1.4,59.91726623832218,
sounds/gauche.ogg,0.7,,3,0,3,0,0,19,19,8,,,,,429.23662363000255,428.55159789999743,,,,001,2021_May_04_0933,list_pa,2021.1.4,59.91726623832218,
sounds/gauche.ogg,0.7,,3,0,3,0,0,20,20,16,,,,,430.7376492299976,None,,,,001,2021_May_04_0933,list_pa,2021.1.4,59.91726623832218,
sounds/gauche.ogg,0.7,,3,0,3,0,0,21,21,5,,,,,432.2375698299969,431.5519676999975,,,,001,2021_May_04_0933,list_pa,2021.1.4,59.91726623832218,
sounds/droite.ogg,0.7,,3,0,3,0,0,22,22,32,,,,,433.737605030003,433.0525095999983,,,,001,2021_May_04_0933,list_pa,2021.1.4,59.91726623832218,
sounds/gauche.ogg,0.7,,3,0,3,0,0,23,23,4,,,,,435.23812422999833,434.552789399997,,,,001,2021_May_04_0933,list_pa,2021.1.4,59.91726623832218,
sounds/gauche.ogg,0.7,,3,0,3,0,0,24,24,7,,,,,436.7387126299967,436.0530809999982,,,,001,2021_May_04_0933,list_pa,2021.1.4,59.91726623832218,
sounds/droite.ogg,0.7,,3,0,3,0,0,25,25,31,,,,,438.23859953000135,437.55356819999724,,,,001,2021_May_04_0933,list_pa,2021.1.4,59.91726623832218,
sounds/gauche.ogg,0.7,,3,0,3,0,0,26,26,1,,,,,439.73854352999695,439.05345849999867,,,,001,2021_May_04_0933,list_pa,2021.1.4,59.91726623832218,
sounds/droite.ogg,0.7,,3,0,3,0,0,27,27,27,,,,,441.2393498300029,440.55427169999894,,,,001,2021_May_04_0933,list_pa,2021.1.4,59.91726623832218,
sounds/droite.ogg,0.7,,3,0,3,0,0,28,28,28,,,,,442.7394489300008,442.0544357000035,,,,001,2021_May_04_0933,list_pa,2021.1.4,59.91726623832218,
sounds/gauche.ogg,0.7,,3,0,3,0,0,29,29,0,,,,,444.2398084300024,443.5547821,,,,001,2021_May_04_0933,list_pa,2021.1.4,59.91726623832218,
sounds/droite.ogg,0.7,,3,0,3,0,0,30,30,43,,,,,445.7402076300008,445.0551839999971,,,,001,2021_May_04_0933,list_pa,2021.1.4,59.91726623832218,
sounds/droite.ogg,0.7,,3,0,3,0,0,31,31,37,,,,,447.2401557299985,446.555503399999,,,,001,2021_May_04_0933,list_pa,2021.1.4,59.91726623832218,
sounds/gauche.ogg,0.7,,3,0,3,0,0,32,32,15,,,,,448.7405553299999,448.05583460000344,,,,001,2021_May_04_0933,list_pa,2021.1.4,59.91726623832218,
sounds/gauche.ogg,0.7,,3,0,3,0,0,33,33,3,,,,,450.2412699299988,449.556141699999,,,,001,2021_May_04_0933,list_pa,2021.1.4,59.91726623832218,
sounds/gauche.ogg,0.7,,3,0,3,0,0,34,34,12,,,,,451.7408155300021,451.0565510000015,,,,001,2021_May_04_0933,list_pa,2021.1.4,59.91726623832218,
sounds/droite.ogg,0.7,,3,0,3,0,0,35,35,25,,,,,453.24174652999716,452.55680720000237,,,,001,2021_May_04_0933,list_pa,2021.1.4,59.91726623832218,
sounds/droite.ogg,0.7,,3,0,3,0,0,36,36,34,,,,,454.74242923000054,454.0571525999985,,,,001,2021_May_04_0933,list_pa,2021.1.4,59.91726623832218,
sounds/gauche.ogg,0.7,,3,0,3,0,0,37,37,23,,,,,456.24298473000306,455.5570727000013,,,,001,2021_May_04_0933,list_pa,2021.1.4,59.91726623832218,
sounds/droite.ogg,0.7,,3,0,3,0,0,38,38,41,,,,,457.7432541300026,457.05774530000053,,,,001,2021_May_04_0933,list_pa,2021.1.4,59.91726623832218,
sounds/droite.ogg,0.7,,3,0,3,0,0,39,39,38,,,,,459.24280352999847,458.5583458999972,,,,001,2021_May_04_0933,list_pa,2021.1.4,59.91726623832218,
sounds/gauche.ogg,0.7,,3,0,3,0,0,40,40,11,,,,,460.7431525300002,460.05836460000137,,,,001,2021_May_04_0933,list_pa,2021.1.4,59.91726623832218,
sounds/droite.ogg,0.7,,3,0,3,0,0,41,41,29,,,,,462.2433374299966,461.5586017000023,,,,001,2021_May_04_0933,list_pa,2021.1.4,59.91726623832218,
sounds/droite.ogg,0.7,,3,0,3,0,0,42,42,33,,,,,463.74362303000305,None,,,,001,2021_May_04_0933,list_pa,2021.1.4,59.91726623832218,
sounds/droite.ogg,0.7,,3,0,3,0,0,43,43,45,,,,,465.2442248300016,464.55922080000164,,,,001,2021_May_04_0933,list_pa,2021.1.4,59.91726623832218,
sounds/gauche.ogg,0.7,,3,0,3,0,0,44,44,6,,,,,466.7451329299969,466.05964539999695,,,,001,2021_May_04_0933,list_pa,2021.1.4,59.91726623832218,
sounds/gauche.ogg,0.7,,3,0,3,0,0,45,45,20,,,,,468.2448731299977,None,,,,001,2021_May_04_0933,list_pa,2021.1.4,59.91726623832218,
sounds/gauche.ogg,0.7,,3,0,3,0,0,46,46,22,,,,,469.7451297300016,469.0600759000008,,,,001,2021_May_04_0933,list_pa,2021.1.4,59.91726623832218,
sounds/gauche.ogg,0.7,,3,0,3,0,0,47,47,21,,,,,471.2453257300025,470.56149300000106,,,,001,2021_May_04_0933,list_pa,2021.1.4,59.91726623832218,
sounds/gauche.ogg,0.7,,3,0,3,0,0,48,48,2,,,,,472.74575293000305,472.0595544000025,,,,001,2021_May_04_0933,list_pa,2021.1.4,59.91726623832218,
sounds/droite.ogg,0.7,,3,0,3,0,0,49,49,46,,,,,474.24653703,473.5611987000011,,,,001,2021_May_04_0933,list_pa,2021.1.4,59.91726623832218,
,,30,3,0,3,0,,,,,0,0,0,0,,,475.0946849000029,None,,001,2021_May_04_0933,list_pa,2021.1.4,59.91726623832218,
,,29,3,0,3,0,,,,,0,1,1,1,,,476.07883440000296,None,,001,2021_May_04_0933,list_pa,2021.1.4,59.91726623832218,
,,28,3,0,3,0,,,,,0,2,2,2,,,477.07842569999775,None,,001,2021_May_04_0933,list_pa,2021.1.4,59.91726623832218,
,,27,3,0,3,0,,,,,0,3,3,3,,,478.07839049999893,None,,001,2021_May_04_0933,list_pa,2021.1.4,59.91726623832218,
,,26,3,0,3,0,,,,,0,4,4,4,,,479.07836040000257,None,,001,2021_May_04_0933,list_pa,2021.1.4,59.91726623832218,
,,25,3,0,3,0,,,,,0,5,5,5,,,480.0795552999989,None,,001,2021_May_04_0933,list_pa,2021.1.4,59.91726623832218,
,,24,3,0,3,0,,,,,0,6,6,6,,,481.07927409999684,None,,001,2021_May_04_0933,list_pa,2021.1.4,59.91726623832218,
,,23,3,0,3,0,,,,,0,7,7,7,,,482.079794199999,None,,001,2021_May_04_0933,list_pa,2021.1.4,59.91726623832218,
,,22,3,0,3,0,,,,,0,8,8,8,,,483.079799799998,None,,001,2021_May_04_0933,list_pa,2021.1.4,59.91726623832218,
,,21,3,0,3,0,,,,,0,9,9,9,,,484.08067100000335,None,,001,2021_May_04_0933,list_pa,2021.1.4,59.91726623832218,
,,20,3,0,3,0,,,,,0,10,10,10,,,485.08062690000224,None,,001,2021_May_04_0933,list_pa,2021.1.4,59.91726623832218,
,,19,3,0,3,0,,,,,0,11,11,11,,,486.08021670000016,None,,001,2021_May_04_0933,list_pa,2021.1.4,59.91726623832218,
,,18,3,0,3,0,,,,,0,12,12,12,,,487.0804457999984,None,,001,2021_May_04_0933,list_pa,2021.1.4,59.91726623832218,
,,17,3,0,3,0,,,,,0,13,13,13,,,488.08046569999715,None,,001,2021_May_04_0933,list_pa,2021.1.4,59.91726623832218,
,,16,3,0,3,0,,,,,0,14,14,14,,,489.08083220000117,None,,001,2021_May_04_0933,list_pa,2021.1.4,59.91726623832218,
,,15,3,0,3,0,,,,,0,15,15,15,,,490.0812558999969,None,,001,2021_May_04_0933,list_pa,2021.1.4,59.91726623832218,
,,14,3,0,3,0,,,,,0,16,16,16,,,491.08108950000315,None,,001,2021_May_04_0933,list_pa,2021.1.4,59.91726623832218,
,,13,3,0,3,0,,,,,0,17,17,17,,,492.0814234999998,None,,001,2021_May_04_0933,list_pa,2021.1.4,59.91726623832218,
,,12,3,0,3,0,,,,,0,18,18,18,,,493.08148500000243,None,,001,2021_May_04_0933,list_pa,2021.1.4,59.91726623832218,
,,11,3,0,3,0,,,,,0,19,19,19,,,494.0820332000003,None,,001,2021_May_04_0933,list_pa,2021.1.4,59.91726623832218,
,,10,3,0,3,0,,,,,0,20,20,20,,,495.08183329999883,None,,001,2021_May_04_0933,list_pa,2021.1.4,59.91726623832218,
,,9,3,0,3,0,,,,,0,21,21,21,,,496.08200729999953,None,,001,2021_May_04_0933,list_pa,2021.1.4,59.91726623832218,
,,8,3,0,3,0,,,,,0,22,22,22,,,497.0823808999994,None,,001,2021_May_04_0933,list_pa,2021.1.4,59.91726623832218,
,,7,3,0,3,0,,,,,0,23,23,23,,,498.0824235999971,None,,001,2021_May_04_0933,list_pa,2021.1.4,59.91726623832218,
,,6,3,0,3,0,,,,,0,24,24,24,,,499.0826498000024,None,,001,2021_May_04_0933,list_pa,2021.1.4,59.91726623832218,
,,5,3,0,3,0,,,,,0,25,25,25,,,500.0828135999982,None,,001,2021_May_04_0933,list_pa,2021.1.4,59.91726623832218,
,,4,3,0,3,0,,,,,0,26,26,26,,,501.0667251999985,None,,001,2021_May_04_0933,list_pa,2021.1.4,59.91726623832218,
,,3,3,0,3,0,,,,,0,27,27,27,,,502.0671734999996,None,,001,2021_May_04_0933,list_pa,2021.1.4,59.91726623832218,
,,2,3,0,3,0,,,,,0,28,28,28,,,503.0670589000001,None,,001,2021_May_04_0933,list_pa,2021.1.4,59.91726623832218,
,,1,3,0,3,0,,,,,0,29,29,29,,,504.0672448999976,None,,001,2021_May_04_0933,list_pa,2021.1.4,59.91726623832218,
,,0,3,0,3,0,,,,,0,30,30,30,,,505.067713299999,None,,001,2021_May_04_0933,list_pa,2021.1.4,59.91726623832218,
,,,3,0,3,0,,,,,,,,,,,,,,001,2021_May_04_0933,list_pa,2021.1.4,59.91726623832218,
sounds/droite.ogg,0.7,,4,0,4,0,0,0,0,46,,,,,506.78600013000175,None,,,,001,2021_May_04_0933,list_pa,2021.1.4,59.91726623832218,
sounds/droite.ogg,0.7,,4,0,4,0,0,1,1,39,,,,,508.28592553000124,507.6008712999974,,,,001,2021_May_04_0933,list_pa,2021.1.4,59.91726623832218,
sounds/gauche.ogg,0.7,,4,0,4,0,0,2,2,19,,,,,509.78663543000073,None,,,,001,2021_May_04_0933,list_pa,2021.1.4,59.91726623832218,
sounds/droite.ogg,0.7,,4,0,4,0,0,3,3,30,,,,,511.2870953300029,510.6015711,,,,001,2021_May_04_0933,list_pa,2021.1.4,59.91726623832218,
sounds/gauche.ogg,0.7,,4,0,4,0,0,4,4,2,,,,,512.7876582300036,512.1019952999995,,,,001,2021_May_04_0933,list_pa,2021.1.4,59.91726623832218,
sounds/droite.ogg,0.7,,4,0,4,0,0,5,5,49,,,,,514.2882088299979,513.6022248000008,,,,001,2021_May_04_0933,list_pa,2021.1.4,59.91726623832218,
sounds/gauche.ogg,0.7,,4,0,4,0,0,6,6,11,,,,,515.7884833299998,515.102541799999,,,,001,2021_May_04_0933,list_pa,2021.1.4,59.91726623832218,
sounds/gauche.ogg,0.7,,4,0,4,0,0,7,7,1,,,,,517.2884247299975,516.6028262999971,,,,001,2021_May_04_0933,list_pa,2021.1.4,59.91726623832218,
sounds/droite.ogg,0.7,,4,0,4,0,0,8,8,35,,,,,518.7886417299982,518.1030772000013,,,,001,2021_May_04_0933,list_pa,2021.1.4,59.91726623832218,
sounds/gauche.ogg,0.7,,4,0,4,0,0,9,9,5,,,,,520.2887271300009,519.6032636000018,,,,001,2021_May_04_0933,list_pa,2021.1.4,59.91726623832218,
sounds/gauche.ogg,0.7,,4,0,4,0,0,10,10,21,,,,,521.7889345300013,None,,,,001,2021_May_04_0933,list_pa,2021.1.4,59.91726623832218,
sounds/gauche.ogg,0.7,,4,0,4,0,0,11,11,10,,,,,523.2894166299978,522.6040353999997,,,,001,2021_May_04_0933,list_pa,2021.1.4,59.91726623832218,
sounds/droite.ogg,0.7,,4,0,4,0,0,12,12,45,,,,,524.7899870299974,524.1044677000027,,,,001,2021_May_04_0933,list_pa,2021.1.4,59.91726623832218,
sounds/droite.ogg,0.7,,4,0,4,0,0,13,13,37,,,,,526.2896435300012,None,,,,001,2021_May_04_0933,list_pa,2021.1.4,59.91726623832218,
sounds/gauche.ogg,0.7,,4,0,4,0,0,14,14,4,,,,,527.7900978299971,527.1053438000017,,,,001,2021_May_04_0933,list_pa,2021.1.4,59.91726623832218,
sounds/gauche.ogg,0.7,,4,0,4,0,0,15,15,13,,,,,529.2898956299999,528.6055046999973,,,,001,2021_May_04_0933,list_pa,2021.1.4,59.91726623832218,
sounds/droite.ogg,0.7,,4,0,4,0,0,16,16,31,,,,,530.7907213300008,530.1058274000025,,,,001,2021_May_04_0933,list_pa,2021.1.4,59.91726623832218,
sounds/gauche.ogg,0.7,,4,0,4,0,0,17,17,8,,,,,532.2912308300023,531.6062106000027,,,,001,2021_May_04_0933,list_pa,2021.1.4,59.91726623832218,
sounds/droite.ogg,0.7,,4,0,4,0,0,18,18,47,,,,,533.790933229999,533.1065021000031,,,,001,2021_May_04_0933,list_pa,2021.1.4,59.91726623832218,
sounds/droite.ogg,0.7,,4,0,4,0,0,19,19,44,,,,,535.2916615300004,534.6069252000016,,,,001,2021_May_04_0933,list_pa,2021.1.4,59.91726623832218,
sounds/droite.ogg,0.7,,4,0,4,0,0,20,20,41,,,,,536.7920781300003,536.1071488000016,,,,001,2021_May_04_0933,list_pa,2021.1.4,59.91726623832218,
sounds/gauche.ogg,0.7,,4,0,4,0,0,21,21,12,,,,,538.29275653,537.6065579999995,,,,001,2021_May_04_0933,list_pa,2021.1.4,59.91726623832218,
sounds/gauche.ogg,0.7,,4,0,4,0,0,22,22,18,,,,,539.7925018300033,539.1074511999977,,,,001,2021_May_04_0933,list_pa,2021.1.4,59.91726623832218,
sounds/droite.ogg,0.7,,4,0,4,0,0,23,23,29,,,,,541.2930586300012,540.6083488000004,,,,001,2021_May_04_0933,list_pa,2021.1.4,59.91726623832218,
sounds/droite.ogg,0.7,,4,0,4,0,0,24,24,40,,,,,542.7926251300036,None,,,,001,2021_May_04_0933,list_pa,2021.1.4,59.91726623832218,
sounds/gauche.ogg,0.7,,4,0,4,0,0,25,25,17,,,,,544.2935348299965,543.6086731000032,,,,001,2021_May_04_0933,list_pa,2021.1.4,59.91726623832218,
sounds/gauche.ogg,0.7,,4,0,4,0,0,26,26,0,,,,,545.794022229997,545.1089769000027,,,,001,2021_May_04_0933,list_pa,2021.1.4,59.91726623832218,
sounds/gauche.ogg,0.7,,4,0,4,0,0,27,27,3,,,,,547.2943060299971,546.6092764999994,,,,001,2021_May_04_0933,list_pa,2021.1.4,59.91726623832218,
sounds/droite.ogg,0.7,,4,0,4,0,0,28,28,33,,,,,548.7945160300027,548.1099340000001,,,,001,2021_May_04_0933,list_pa,2021.1.4,59.91726623832218,
sounds/gauche.ogg,0.7,,4,0,4,0,0,29,29,6,,,,,550.2949632300027,549.6096058999974,,,,001,2021_May_04_0933,list_pa,2021.1.4,59.91726623832218,
sounds/gauche.ogg,0.7,,4,0,4,0,0,30,30,16,,,,,551.7958222300025,551.1095933999968,,,,001,2021_May_04_0933,list_pa,2021.1.4,59.91726623832218,
sounds/gauche.ogg,0.7,,4,0,4,0,0,31,31,7,,,,,553.2952060300034,552.6110430999979,,,,001,2021_May_04_0933,list_pa,2021.1.4,59.91726623832218,
sounds/gauche.ogg,0.7,,4,0,4,0,0,32,32,20,,,,,554.7957723300009,554.1107596000002,,,,001,2021_May_04_0933,list_pa,2021.1.4,59.91726623832218,
sounds/droite.ogg,0.7,,4,0,4,0,0,33,33,38,,,,,556.2964884299967,555.6111823000028,,,,001,2021_May_04_0933,list_pa,2021.1.4,59.91726623832218,
sounds/droite.ogg,0.7,,4,0,4,0,0,34,34,36,,,,,557.797554029998,557.1114376999976,,,,001,2021_May_04_0933,list_pa,2021.1.4,59.91726623832218,
sounds/droite.ogg,0.7,,4,0,4,0,0,35,35,48,,,,,559.2964807300035,558.6114369999996,,,,001,2021_May_04_0933,list_pa,2021.1.4,59.91726623832218,
sounds/gauche.ogg,0.7,,4,0,4,0,0,36,36,9,,,,,560.7978006299985,None,,,,001,2021_May_04_0933,list_pa,2021.1.4,59.91726623832218,
sounds/droite.ogg,0.7,,4,0,4,0,0,37,37,43,,,,,562.2979935299976,561.6121570999967,,,,001,2021_May_04_0933,list_pa,2021.1.4,59.91726623832218,
sounds/droite.ogg,0.7,,4,0,4,0,0,38,38,42,,,,,563.7982298299997,563.1123539000037,,,,001,2021_May_04_0933,list_pa,2021.1.4,59.91726623832218,
sounds/droite.ogg,0.7,,4,0,4,0,0,39,39,32,,,,,565.297858029999,564.6124721000015,,,,001,2021_May_04_0933,list_pa,2021.1.4,59.91726623832218,
sounds/droite.ogg,0.7,,4,0,4,0,0,40,40,27,,,,,566.7982519300007,566.1127621999985,,,,001,2021_May_04_0933,list_pa,2021.1.4,59.91726623832218,
sounds/gauche.ogg,0.7,,4,0,4,0,0,41,41,22,,,,,568.2990778300031,567.6134359999996,,,,001,2021_May_04_0933,list_pa,2021.1.4,59.91726623832218,
sounds/droite.ogg,0.7,,4,0,4,0,0,42,42,34,,,,,569.7984688300006,569.1135495999988,,,,001,2021_May_04_0933,list_pa,2021.1.4,59.91726623832218,
sounds/gauche.ogg,0.7,,4,0,4,0,0,43,43,15,,,,,571.2992488300027,570.6139144999979,,,,001,2021_May_04_0933,list_pa,2021.1.4,59.91726623832218,
sounds/gauche.ogg,0.7,,4,0,4,0,0,44,44,23,,,,,572.7995362300011,572.1137882999974,,,,001,2021_May_04_0933,list_pa,2021.1.4,59.91726623832218,
sounds/droite.ogg,0.7,,4,0,4,0,0,45,45,28,,,,,574.299784930003,573.6148706000022,,,,001,2021_May_04_0933,list_pa,2021.1.4,59.91726623832218,
sounds/droite.ogg,0.7,,4,0,4,0,0,46,46,26,,,,,575.7997620300033,575.1142280999993,,,,001,2021_May_04_0933,list_pa,2021.1.4,59.91726623832218,
sounds/droite.ogg,0.7,,4,0,4,0,0,47,47,25,,,,,577.3001376299966,None,,,,001,2021_May_04_0933,list_pa,2021.1.4,59.91726623832218,
sounds/gauche.ogg,0.7,,4,0,4,0,0,48,48,24,,,,,578.801009930003,578.1157142000011,,,,001,2021_May_04_0933,list_pa,2021.1.4,59.91726623832218,
sounds/gauche.ogg,0.7,,4,0,4,0,0,49,49,14,,,,,580.3006953300013,579.6162476000027,,,,001,2021_May_04_0933,list_pa,2021.1.4,59.91726623832218,
,,30,4,0,4,0,,,,,0,0,0,0,,,581.1315220000033,None,,001,2021_May_04_0933,list_pa,2021.1.4,59.91726623832218,
,,29,4,0,4,0,,,,,0,1,1,1,,,582.1327648000006,None,,001,2021_May_04_0933,list_pa,2021.1.4,59.91726623832218,
,,28,4,0,4,0,,,,,0,2,2,2,,,583.1330378999992,None,,001,2021_May_04_0933,list_pa,2021.1.4,59.91726623832218,
,,27,4,0,4,0,,,,,0,3,3,3,,,584.1332485000021,None,,001,2021_May_04_0933,list_pa,2021.1.4,59.91726623832218,
,,26,4,0,4,0,,,,,0,4,4,4,,,585.1333774000013,None,,001,2021_May_04_0933,list_pa,2021.1.4,59.91726623832218,
,,25,4,0,4,0,,,,,0,5,5,5,,,586.1340343999982,None,,001,2021_May_04_0933,list_pa,2021.1.4,59.91726623832218,
,,24,4,0,4,0,,,,,0,6,6,6,,,587.1041336999988,None,,001,2021_May_04_0933,list_pa,2021.1.4,59.91726623832218,
,,23,4,0,4,0,,,,,0,7,7,7,,,588.1113584999985,None,,001,2021_May_04_0933,list_pa,2021.1.4,59.91726623832218,
,,22,4,0,4,0,,,,,0,8,8,8,,,589.1259587000022,None,,001,2021_May_04_0933,list_pa,2021.1.4,59.91726623832218,
,,21,4,0,4,0,,,,,0,9,9,9,,,590.122163699998,None,,001,2021_May_04_0933,list_pa,2021.1.4,59.91726623832218,
,,20,4,0,4,0,,,,,0,10,10,10,,,None,None,,001,2021_May_04_0933,list_pa,2021.1.4,59.91726623832218,
,,19,4,0,4,0,,,,,0,11,11,11,,,None,None,,001,2021_May_04_0933,list_pa,2021.1.4,59.91726623832218,
,,18,4,0,4,0,,,,,0,12,12,12,,,None,None,,001,2021_May_04_0933,list_pa,2021.1.4,59.91726623832218,
,,17,4,0,4,0,,,,,0,13,13,13,,,None,None,,001,2021_May_04_0933,list_pa,2021.1.4,59.91726623832218,
,,16,4,0,4,0,,,,,0,14,14,14,,,None,None,,001,2021_May_04_0933,list_pa,2021.1.4,59.91726623832218,
,,15,4,0,4,0,,,,,0,15,15,15,,,None,None,,001,2021_May_04_0933,list_pa,2021.1.4,59.91726623832218,
,,14,4,0,4,0,,,,,0,16,16,16,,,None,None,,001,2021_May_04_0933,list_pa,2021.1.4,59.91726623832218,
,,13,4,0,4,0,,,,,0,17,17,17,,,None,None,,001,2021_May_04_0933,list_pa,2021.1.4,59.91726623832218,
,,12,4,0,4,0,,,,,0,18,18,18,,,None,None,,001,2021_May_04_0933,list_pa,2021.1.4,59.91726623832218,
,,11,4,0,4,0,,,,,0,19,19,19,,,None,None,,001,2021_May_04_0933,list_pa,2021.1.4,59.91726623832218,
,,10,4,0,4,0,,,,,0,20,20,20,,,None,None,,001,2021_May_04_0933,list_pa,2021.1.4,59.91726623832218,
,,9,4,0,4,0,,,,,0,21,21,21,,,None,None,,001,2021_May_04_0933,list_pa,2021.1.4,59.91726623832218,
,,8,4,0,4,0,,,,,0,22,22,22,,,None,None,,001,2021_May_04_0933,list_pa,2021.1.4,59.91726623832218,
,,7,4,0,4,0,,,,,0,23,23,23,,,None,None,,001,2021_May_04_0933,list_pa,2021.1.4,59.91726623832218,
,,6,4,0,4,0,,,,,0,24,24,24,,,None,None,,001,2021_May_04_0933,list_pa,2021.1.4,59.91726623832218,
,,5,4,0,4,0,,,,,0,25,25,25,,,None,None,,001,2021_May_04_0933,list_pa,2021.1.4,59.91726623832218,
,,4,4,0,4,0,,,,,0,26,26,26,,,None,None,,001,2021_May_04_0933,list_pa,2021.1.4,59.91726623832218,
,,3,4,0,4,0,,,,,0,27,27,27,,,None,None,,001,2021_May_04_0933,list_pa,2021.1.4,59.91726623832218,
,,2,4,0,4,0,,,,,0,28,28,28,,,None,None,,001,2021_May_04_0933,list_pa,2021.1.4,59.91726623832218,
,,1,4,0,4,0,,,,,0,29,29,29,,,None,None,,001,2021_May_04_0933,list_pa,2021.1.4,59.91726623832218,
,,0,4,0,4,0,,,,,0,30,30,30,,,None,None,,001,2021_May_04_0933,list_pa,2021.1.4,59.91726623832218,
,,,4,0,4,0,,,,,,,,,,,,,,001,2021_May_04_0933,list_pa,2021.1.4,59.91726623832218,
