word_stimuli,isi,trials.thisRepN,trials.thisTrialN,trials.thisN,trials.thisIndex,trial_loop.thisRepN,trial_loop.thisTrialN,trial_loop.thisN,trial_loop.thisIndex,trials_2.thisRepN,trials_2.thisTrialN,trials_2.thisN,trials_2.thisIndex,sound_exposure.started,sound_exposure.stopped,participant,session,date,expName,psychopyVersion,frameRate,
sounds/gauche.ogg,0.7,0,0,0,0,0,0,0,16,,,,,56.73876456001308,None,,001,2021_May_03_0904,list_pa,2021.1.4,59.9333900324498,
sounds/gauche.ogg,0.7,0,0,0,0,0,1,1,5,,,,,58.24072816000553,57.55542390001938,,001,2021_May_03_0904,list_pa,2021.1.4,59.9333900324498,
sounds/droite.ogg,0.7,0,0,0,0,0,2,2,41,,,,,59.73991546004545,None,,001,2021_May_03_0904,list_pa,2021.1.4,59.9333900324498,
sounds/droite.ogg,0.7,0,0,0,0,0,3,3,26,,,,,61.24208576004021,60.55565860000206,,001,2021_May_03_0904,list_pa,2021.1.4,59.9333900324498,
sounds/gauche.ogg,0.7,0,0,0,0,0,4,4,11,,,,,62.7416045600432,62.05659590003779,,001,2021_May_03_0904,list_pa,2021.1.4,59.9333900324498,
sounds/droite.ogg,0.7,0,0,0,0,0,5,5,43,,,,,64.24247316002148,63.55830470001092,,001,2021_May_03_0904,list_pa,2021.1.4,59.9333900324498,
sounds/gauche.ogg,0.7,0,0,0,0,0,6,6,15,,,,,65.74118836001726,65.05721070000436,,001,2021_May_03_0904,list_pa,2021.1.4,59.9333900324498,
sounds/droite.ogg,0.7,0,0,0,0,0,7,7,44,,,,,67.24197916004341,66.55759010004112,,001,2021_May_03_0904,list_pa,2021.1.4,59.9333900324498,
sounds/gauche.ogg,0.7,0,0,0,0,0,8,8,17,,,,,68.74265976004536,68.05754530004924,,001,2021_May_03_0904,list_pa,2021.1.4,59.9333900324498,
sounds/gauche.ogg,0.7,0,0,0,0,0,9,9,13,,,,,70.24364116000943,69.55814710003324,,001,2021_May_03_0904,list_pa,2021.1.4,59.9333900324498,
sounds/droite.ogg,0.7,0,0,0,0,0,10,10,35,,,,,71.74311165999389,None,,001,2021_May_03_0904,list_pa,2021.1.4,59.9333900324498,
sounds/droite.ogg,0.7,0,0,0,0,0,11,11,42,,,,,73.24410846001702,72.55874800001038,,001,2021_May_03_0904,list_pa,2021.1.4,59.9333900324498,
sounds/gauche.ogg,0.7,0,0,0,0,0,12,12,0,,,,,74.74405436001253,74.05913070001407,,001,2021_May_03_0904,list_pa,2021.1.4,59.9333900324498,
sounds/gauche.ogg,0.7,0,0,0,0,0,13,13,19,,,,,76.2449938600068,None,,001,2021_May_03_0904,list_pa,2021.1.4,59.9333900324498,
sounds/gauche.ogg,0.7,0,0,0,0,0,14,14,3,,,,,77.74459626000608,77.05955530004576,,001,2021_May_03_0904,list_pa,2021.1.4,59.9333900324498,
sounds/gauche.ogg,0.7,0,0,0,0,0,15,15,23,,,,,79.24471486003604,78.55913670000155,,001,2021_May_03_0904,list_pa,2021.1.4,59.9333900324498,
sounds/droite.ogg,0.7,0,0,0,0,0,16,16,36,,,,,80.74548526002327,80.06005080003524,,001,2021_May_03_0904,list_pa,2021.1.4,59.9333900324498,
sounds/droite.ogg,0.7,0,0,0,0,0,17,17,32,,,,,82.24513666004641,81.5606495999964,,001,2021_May_03_0904,list_pa,2021.1.4,59.9333900324498,
sounds/gauche.ogg,0.7,0,0,0,0,0,18,18,8,,,,,83.7460766600445,83.06095140002435,,001,2021_May_03_0904,list_pa,2021.1.4,59.9333900324498,
sounds/gauche.ogg,0.7,0,0,0,0,0,19,19,1,,,,,85.2467009600252,84.56130540004233,,001,2021_May_03_0904,list_pa,2021.1.4,59.9333900324498,
sounds/droite.ogg,0.7,0,0,0,0,0,20,20,47,,,,,86.74747366002994,86.0608690000372,,001,2021_May_03_0904,list_pa,2021.1.4,59.9333900324498,
sounds/droite.ogg,0.7,0,0,0,0,0,21,21,45,,,,,88.24747056000633,87.56176790001336,,001,2021_May_03_0904,list_pa,2021.1.4,59.9333900324498,
sounds/gauche.ogg,0.7,0,0,0,0,0,22,22,12,,,,,89.76400666001719,None,,001,2021_May_03_0904,list_pa,2021.1.4,59.9333900324498,
sounds/droite.ogg,0.7,0,0,0,0,0,23,23,37,,,,,91.26413706002059,None,,001,2021_May_03_0904,list_pa,2021.1.4,59.9333900324498,
sounds/droite.ogg,0.7,0,0,0,0,0,24,24,39,,,,,92.76432465999387,92.07808600005228,,001,2021_May_03_0904,list_pa,2021.1.4,59.9333900324498,
sounds/gauche.ogg,0.7,0,0,0,0,0,25,25,4,,,,,94.26444735999685,93.57952379999915,,001,2021_May_03_0904,list_pa,2021.1.4,59.9333900324498,
sounds/gauche.ogg,0.7,0,0,0,0,0,26,26,22,,,,,95.76501186004607,None,,001,2021_May_03_0904,list_pa,2021.1.4,59.9333900324498,
sounds/gauche.ogg,0.7,0,0,0,0,0,27,27,18,,,,,97.26509616004769,96.58006010000827,,001,2021_May_03_0904,list_pa,2021.1.4,59.9333900324498,
sounds/droite.ogg,0.7,0,0,0,0,0,28,28,28,,,,,98.76569365999895,98.08009010000387,,001,2021_May_03_0904,list_pa,2021.1.4,59.9333900324498,
sounds/gauche.ogg,0.7,0,0,0,0,0,29,29,9,,,,,100.26610266002827,99.58130670001265,,001,2021_May_03_0904,list_pa,2021.1.4,59.9333900324498,
sounds/gauche.ogg,0.7,0,0,0,0,0,30,30,7,,,,,101.76681426003343,101.08094220003113,,001,2021_May_03_0904,list_pa,2021.1.4,59.9333900324498,
sounds/droite.ogg,0.7,0,0,0,0,0,31,31,33,,,,,103.26686446000822,102.58149370003957,,001,2021_May_03_0904,list_pa,2021.1.4,59.9333900324498,
sounds/droite.ogg,0.7,0,0,0,0,0,32,32,31,,,,,104.76688376003877,104.08248199999798,,001,2021_May_03_0904,list_pa,2021.1.4,59.9333900324498,
sounds/gauche.ogg,0.7,0,0,0,0,0,33,33,10,,,,,106.26692476000171,105.58215070003644,,001,2021_May_03_0904,list_pa,2021.1.4,59.9333900324498,
sounds/droite.ogg,0.7,0,0,0,0,0,34,34,29,,,,,107.76831836001948,None,,001,2021_May_03_0904,list_pa,2021.1.4,59.9333900324498,
sounds/droite.ogg,0.7,0,0,0,0,0,35,35,34,,,,,109.26702526001027,None,,001,2021_May_03_0904,list_pa,2021.1.4,59.9333900324498,
sounds/gauche.ogg,0.7,0,0,0,0,0,36,36,21,,,,,110.76849925999996,None,,001,2021_May_03_0904,list_pa,2021.1.4,59.9333900324498,
sounds/droite.ogg,0.7,0,0,0,0,0,37,37,46,,,,,112.26873186002486,111.58299970004009,,001,2021_May_03_0904,list_pa,2021.1.4,59.9333900324498,
sounds/gauche.ogg,0.7,0,0,0,0,0,38,38,24,,,,,113.76956566002919,None,,001,2021_May_03_0904,list_pa,2021.1.4,59.9333900324498,
sounds/droite.ogg,0.7,0,0,0,0,0,39,39,38,,,,,115.2694499600213,114.58391020004638,,001,2021_May_03_0904,list_pa,2021.1.4,59.9333900324498,
sounds/gauche.ogg,0.7,0,0,0,0,0,40,40,14,,,,,116.76941575999372,116.08394840004621,,001,2021_May_03_0904,list_pa,2021.1.4,59.9333900324498,
sounds/gauche.ogg,0.7,0,0,0,0,0,41,41,20,,,,,118.27017536001513,117.58389810001245,,001,2021_May_03_0904,list_pa,2021.1.4,59.9333900324498,
sounds/droite.ogg,0.7,0,0,0,0,0,42,42,27,,,,,119.77090746000177,119.08440450002672,,001,2021_May_03_0904,list_pa,2021.1.4,59.9333900324498,
sounds/gauche.ogg,0.7,0,0,0,0,0,43,43,2,,,,,121.27048286002828,120.58497950003948,,001,2021_May_03_0904,list_pa,2021.1.4,59.9333900324498,
sounds/droite.ogg,0.7,0,0,0,0,0,44,44,30,,,,,122.77093806000194,122.08566820004489,,001,2021_May_03_0904,list_pa,2021.1.4,59.9333900324498,
sounds/droite.ogg,0.7,0,0,0,0,0,45,45,40,,,,,124.2688978600083,123.58573580003576,,001,2021_May_03_0904,list_pa,2021.1.4,59.9333900324498,
sounds/gauche.ogg,0.7,0,0,0,0,0,46,46,6,,,,,125.77120376004605,125.086141900043,,001,2021_May_03_0904,list_pa,2021.1.4,59.9333900324498,
sounds/droite.ogg,0.7,0,0,0,0,0,47,47,48,,,,,127.27147856004304,126.58636430004844,,001,2021_May_03_0904,list_pa,2021.1.4,59.9333900324498,
sounds/droite.ogg,0.7,0,0,0,0,0,48,48,25,,,,,128.77107726001412,128.08664920000592,,001,2021_May_03_0904,list_pa,2021.1.4,59.9333900324498,
sounds/droite.ogg,0.7,0,0,0,0,0,49,49,49,,,,,130.27195346005027,None,,001,2021_May_03_0904,list_pa,2021.1.4,59.9333900324498,
