word_stimuli,isi,countdown,trials.thisRepN,trials.thisTrialN,trials.thisN,trials.thisIndex,trial_loop.thisRepN,trial_loop.thisTrialN,trial_loop.thisN,trial_loop.thisIndex,trials_2.thisRepN,trials_2.thisTrialN,trials_2.thisN,trials_2.thisIndex,sound_exposure.started,sound_exposure.stopped,text.started,text.stopped,participant,session,date,expName,psychopyVersion,frameRate,
sounds/gauche.ogg,0.7,,0,0,0,0,0,0,0,22,,,,,56.22053193999964,None,,,,001,2021_May_07_1421,list_pa,2021.1.4,59.47300966169726,
sounds/gauche.ogg,0.7,,0,0,0,0,0,1,1,5,,,,,57.72243544000012,57.03638620000129,,,,001,2021_May_07_1421,list_pa,2021.1.4,59.47300966169726,
sounds/droite.ogg,0.7,,0,0,0,0,0,2,2,40,,,,,59.22214214000051,58.53646019999724,,,,001,2021_May_07_1421,list_pa,2021.1.4,59.47300966169726,
sounds/droite.ogg,0.7,,0,0,0,0,0,3,3,48,,,,,60.72233154000205,None,,,,001,2021_May_07_1421,list_pa,2021.1.4,59.47300966169726,
sounds/gauche.ogg,0.7,,0,0,0,0,0,4,4,15,,,,,62.223402440000065,61.53736789999675,,,,001,2021_May_07_1421,list_pa,2021.1.4,59.47300966169726,
sounds/gauche.ogg,0.7,,0,0,0,0,0,5,5,6,,,,,63.73998494000043,None,,,,001,2021_May_07_1421,list_pa,2021.1.4,59.47300966169726,
sounds/gauche.ogg,0.7,,0,0,0,0,0,6,6,2,,,,,65.23934184000026,64.55491220000113,,,,001,2021_May_07_1421,list_pa,2021.1.4,59.47300966169726,
sounds/droite.ogg,0.7,,0,0,0,0,0,7,7,35,,,,,66.74073483999891,66.05520619999879,,,,001,2021_May_07_1421,list_pa,2021.1.4,59.47300966169726,
sounds/gauche.ogg,0.7,,0,0,0,0,0,8,8,12,,,,,68.24077463999637,67.55585199999769,,,,001,2021_May_07_1421,list_pa,2021.1.4,59.47300966169726,
sounds/droite.ogg,0.7,,0,0,0,0,0,9,9,46,,,,,69.74085053999951,None,,,,001,2021_May_07_1421,list_pa,2021.1.4,59.47300966169726,
sounds/gauche.ogg,0.7,,0,0,0,0,0,10,10,20,,,,,71.2418632399982,70.55591959999583,,,,001,2021_May_07_1421,list_pa,2021.1.4,59.47300966169726,
sounds/gauche.ogg,0.7,,0,0,0,0,0,11,11,0,,,,,72.74159923999613,72.05646100000013,,,,001,2021_May_07_1421,list_pa,2021.1.4,59.47300966169726,
sounds/droite.ogg,0.7,,0,0,0,0,0,12,12,44,,,,,74.24247393999903,None,,,,001,2021_May_07_1421,list_pa,2021.1.4,59.47300966169726,
sounds/gauche.ogg,0.7,,0,0,0,0,0,13,13,9,,,,,75.74329753999845,75.05697939999664,,,,001,2021_May_07_1421,list_pa,2021.1.4,59.47300966169726,
sounds/droite.ogg,0.7,,0,0,0,0,0,14,14,43,,,,,77.24291733999925,76.55608049999864,,,,001,2021_May_07_1421,list_pa,2021.1.4,59.47300966169726,
sounds/gauche.ogg,0.7,,0,0,0,0,0,15,15,3,,,,,78.74266683999812,78.05743329999677,,,,001,2021_May_07_1421,list_pa,2021.1.4,59.47300966169726,
sounds/droite.ogg,0.7,,0,0,0,0,0,16,16,27,,,,,80.24332454000032,None,,,,001,2021_May_07_1421,list_pa,2021.1.4,59.47300966169726,
sounds/gauche.ogg,0.7,,0,0,0,0,0,17,17,10,,,,,81.74297843999884,81.0578147999986,,,,001,2021_May_07_1421,list_pa,2021.1.4,59.47300966169726,
sounds/droite.ogg,0.7,,0,0,0,0,0,18,18,42,,,,,83.24399223999862,82.55840660000104,,,,001,2021_May_07_1421,list_pa,2021.1.4,59.47300966169726,
sounds/droite.ogg,0.7,,0,0,0,0,0,19,19,37,,,,,84.74437993999672,84.05883319999703,,,,001,2021_May_07_1421,list_pa,2021.1.4,59.47300966169726,
sounds/droite.ogg,0.7,,0,0,0,0,0,20,20,49,,,,,86.24415884000118,85.55893410000135,,,,001,2021_May_07_1421,list_pa,2021.1.4,59.47300966169726,
sounds/droite.ogg,0.7,,0,0,0,0,0,21,21,47,,,,,87.74421503999983,87.05835610000213,,,,001,2021_May_07_1421,list_pa,2021.1.4,59.47300966169726,
sounds/gauche.ogg,0.7,,0,0,0,0,0,22,22,11,,,,,89.24562053999907,88.55960789999517,,,,001,2021_May_07_1421,list_pa,2021.1.4,59.47300966169726,
sounds/droite.ogg,0.7,,0,0,0,0,0,23,23,33,,,,,90.7450926399957,90.0602521999972,,,,001,2021_May_07_1421,list_pa,2021.1.4,59.47300966169726,
sounds/gauche.ogg,0.7,,0,0,0,0,0,24,24,14,,,,,92.24503373999832,91.56008819999988,,,,001,2021_May_07_1421,list_pa,2021.1.4,59.47300966169726,
sounds/droite.ogg,0.7,,0,0,0,0,0,25,25,45,,,,,93.7455069399999,93.0607766999965,,,,001,2021_May_07_1421,list_pa,2021.1.4,59.47300966169726,
sounds/gauche.ogg,0.7,,0,0,0,0,0,26,26,1,,,,,95.24561283999864,94.5607525000014,,,,001,2021_May_07_1421,list_pa,2021.1.4,59.47300966169726,
sounds/gauche.ogg,0.7,,0,0,0,0,0,27,27,7,,,,,96.74588513999842,None,,,,001,2021_May_07_1421,list_pa,2021.1.4,59.47300966169726,
sounds/droite.ogg,0.7,,0,0,0,0,0,28,28,26,,,,,98.24648633999968,97.56176369999594,,,,001,2021_May_07_1421,list_pa,2021.1.4,59.47300966169726,
sounds/gauche.ogg,0.7,,0,0,0,0,0,29,29,19,,,,,99.74716463999866,99.06207699999504,,,,001,2021_May_07_1421,list_pa,2021.1.4,59.47300966169726,
sounds/droite.ogg,0.7,,0,0,0,0,0,30,30,36,,,,,101.24679424000132,100.56200749999698,,,,001,2021_May_07_1421,list_pa,2021.1.4,59.47300966169726,
sounds/gauche.ogg,0.7,,0,0,0,0,0,31,31,18,,,,,102.74764803999787,102.0624067999961,,,,001,2021_May_07_1421,list_pa,2021.1.4,59.47300966169726,
sounds/droite.ogg,0.7,,0,0,0,0,0,32,32,39,,,,,104.2477978399962,103.5628371999992,,,,001,2021_May_07_1421,list_pa,2021.1.4,59.47300966169726,
sounds/gauche.ogg,0.7,,0,0,0,0,0,33,33,8,,,,,105.74801613999952,105.06298209999659,,,,001,2021_May_07_1421,list_pa,2021.1.4,59.47300966169726,
sounds/gauche.ogg,0.7,,0,0,0,0,0,34,34,23,,,,,107.24848654000161,106.56343399999605,,,,001,2021_May_07_1421,list_pa,2021.1.4,59.47300966169726,
sounds/droite.ogg,0.7,,0,0,0,0,0,35,35,34,,,,,108.74860684000086,108.06386550000025,,,,001,2021_May_07_1421,list_pa,2021.1.4,59.47300966169726,
sounds/droite.ogg,0.7,,0,0,0,0,0,36,36,25,,,,,110.24889493999726,109.56404009999824,,,,001,2021_May_07_1421,list_pa,2021.1.4,59.47300966169726,
sounds/droite.ogg,0.7,,0,0,0,0,0,37,37,32,,,,,111.74951413999733,111.06452509999508,,,,001,2021_May_07_1421,list_pa,2021.1.4,59.47300966169726,
sounds/droite.ogg,0.7,,0,0,0,0,0,38,38,38,,,,,113.2494134400018,112.56464340000093,,,,001,2021_May_07_1421,list_pa,2021.1.4,59.47300966169726,
sounds/droite.ogg,0.7,,0,0,0,0,0,39,39,41,,,,,114.7640974399961,None,,,,001,2021_May_07_1421,list_pa,2021.1.4,59.47300966169726,
sounds/droite.ogg,0.7,,0,0,0,0,0,40,40,28,,,,,116.26701693999857,None,,,,001,2021_May_07_1421,list_pa,2021.1.4,59.47300966169726,
sounds/gauche.ogg,0.7,,0,0,0,0,0,41,41,13,,,,,117.76677934000108,117.08129609999742,,,,001,2021_May_07_1421,list_pa,2021.1.4,59.47300966169726,
sounds/gauche.ogg,0.7,,0,0,0,0,0,42,42,17,,,,,119.26715343999749,118.58249110000179,,,,001,2021_May_07_1421,list_pa,2021.1.4,59.47300966169726,
sounds/droite.ogg,0.7,,0,0,0,0,0,43,43,29,,,,,120.76811253999549,120.08239319999848,,,,001,2021_May_07_1421,list_pa,2021.1.4,59.47300966169726,
sounds/droite.ogg,0.7,,0,0,0,0,0,44,44,31,,,,,122.28448433999947,None,,,,001,2021_May_07_1421,list_pa,2021.1.4,59.47300966169726,
sounds/droite.ogg,0.7,,0,0,0,0,0,45,45,30,,,,,123.7848994399952,123.09983249999641,,,,001,2021_May_07_1421,list_pa,2021.1.4,59.47300966169726,
sounds/gauche.ogg,0.7,,0,0,0,0,0,46,46,21,,,,,125.28521383999541,124.600677800001,,,,001,2021_May_07_1421,list_pa,2021.1.4,59.47300966169726,
sounds/gauche.ogg,0.7,,0,0,0,0,0,47,47,16,,,,,126.78761633999747,126.10064250000141,,,,001,2021_May_07_1421,list_pa,2021.1.4,59.47300966169726,
sounds/gauche.ogg,0.7,,0,0,0,0,0,48,48,24,,,,,128.30208593999632,None,,,,001,2021_May_07_1421,list_pa,2021.1.4,59.47300966169726,
sounds/gauche.ogg,0.7,,0,0,0,0,0,49,49,4,,,,,129.8030536400016,None,,,,001,2021_May_07_1421,list_pa,2021.1.4,59.47300966169726,
,,30,0,0,0,0,,,,,0,0,0,0,,,130.685166999996,None,,001,2021_May_07_1421,list_pa,2021.1.4,59.47300966169726,
,,29,0,0,0,0,,,,,0,1,1,1,,,131.63514020000002,None,,001,2021_May_07_1421,list_pa,2021.1.4,59.47300966169726,
,,28,0,0,0,0,,,,,0,2,2,2,,,132.6347067999959,None,,001,2021_May_07_1421,list_pa,2021.1.4,59.47300966169726,
,,27,0,0,0,0,,,,,0,3,3,3,,,133.63630569999805,None,,001,2021_May_07_1421,list_pa,2021.1.4,59.47300966169726,
,,26,0,0,0,0,,,,,0,4,4,4,,,134.63619420000032,None,,001,2021_May_07_1421,list_pa,2021.1.4,59.47300966169726,
,,25,0,0,0,0,,,,,0,5,5,5,,,135.63683599999786,None,,001,2021_May_07_1421,list_pa,2021.1.4,59.47300966169726,
,,24,0,0,0,0,,,,,0,6,6,6,,,136.6365044999984,None,,001,2021_May_07_1421,list_pa,2021.1.4,59.47300966169726,
,,23,0,0,0,0,,,,,0,7,7,7,,,137.6364104999957,None,,001,2021_May_07_1421,list_pa,2021.1.4,59.47300966169726,
,,22,0,0,0,0,,,,,0,8,8,8,,,138.63663619999716,None,,001,2021_May_07_1421,list_pa,2021.1.4,59.47300966169726,
,,21,0,0,0,0,,,,,0,9,9,9,,,139.63668650000182,None,,001,2021_May_07_1421,list_pa,2021.1.4,59.47300966169726,
,,20,0,0,0,0,,,,,0,10,10,10,,,140.63669220000156,None,,001,2021_May_07_1421,list_pa,2021.1.4,59.47300966169726,
,,19,0,0,0,0,,,,,0,11,11,11,,,141.6370695000005,None,,001,2021_May_07_1421,list_pa,2021.1.4,59.47300966169726,
,,18,0,0,0,0,,,,,0,12,12,12,,,142.63693580000108,None,,001,2021_May_07_1421,list_pa,2021.1.4,59.47300966169726,
,,17,0,0,0,0,,,,,0,13,13,13,,,143.63727949999884,None,,001,2021_May_07_1421,list_pa,2021.1.4,59.47300966169726,
,,16,0,0,0,0,,,,,0,14,14,14,,,144.63749680000183,None,,001,2021_May_07_1421,list_pa,2021.1.4,59.47300966169726,
,,15,0,0,0,0,,,,,0,15,15,15,,,145.63764329999685,None,,001,2021_May_07_1421,list_pa,2021.1.4,59.47300966169726,
,,14,0,0,0,0,,,,,0,16,16,16,,,146.6379689999958,None,,001,2021_May_07_1421,list_pa,2021.1.4,59.47300966169726,
,,13,0,0,0,0,,,,,0,17,17,17,,,147.6380094999986,None,,001,2021_May_07_1421,list_pa,2021.1.4,59.47300966169726,
,,12,0,0,0,0,,,,,0,18,18,18,,,148.63885840000148,None,,001,2021_May_07_1421,list_pa,2021.1.4,59.47300966169726,
,,11,0,0,0,0,,,,,0,19,19,19,,,149.6384934000016,None,,001,2021_May_07_1421,list_pa,2021.1.4,59.47300966169726,
,,10,0,0,0,0,,,,,0,20,20,20,,,150.63868060000095,None,,001,2021_May_07_1421,list_pa,2021.1.4,59.47300966169726,
,,9,0,0,0,0,,,,,0,21,21,21,,,151.63916869999957,None,,001,2021_May_07_1421,list_pa,2021.1.4,59.47300966169726,
,,8,0,0,0,0,,,,,0,22,22,22,,,152.6392651999995,None,,001,2021_May_07_1421,list_pa,2021.1.4,59.47300966169726,
,,7,0,0,0,0,,,,,0,23,23,23,,,153.6397635999965,None,,001,2021_May_07_1421,list_pa,2021.1.4,59.47300966169726,
,,6,0,0,0,0,,,,,0,24,24,24,,,154.62338789999922,None,,001,2021_May_07_1421,list_pa,2021.1.4,59.47300966169726,
,,5,0,0,0,0,,,,,0,25,25,25,,,155.62324010000157,None,,001,2021_May_07_1421,list_pa,2021.1.4,59.47300966169726,
,,4,0,0,0,0,,,,,0,26,26,26,,,156.62347189999855,None,,001,2021_May_07_1421,list_pa,2021.1.4,59.47300966169726,
,,3,0,0,0,0,,,,,0,27,27,27,,,157.624055399996,None,,001,2021_May_07_1421,list_pa,2021.1.4,59.47300966169726,
,,2,0,0,0,0,,,,,0,28,28,28,,,158.6242299000005,None,,001,2021_May_07_1421,list_pa,2021.1.4,59.47300966169726,
,,1,0,0,0,0,,,,,0,29,29,29,,,159.62423169999965,None,,001,2021_May_07_1421,list_pa,2021.1.4,59.47300966169726,
,,0,0,0,0,0,,,,,0,30,30,30,,,160.62443650000205,None,,001,2021_May_07_1421,list_pa,2021.1.4,59.47300966169726,
,,,0,0,0,0,,,,,,,,,,,,,,001,2021_May_07_1421,list_pa,2021.1.4,59.47300966169726,
sounds/gauche.ogg,0.7,,1,0,1,0,0,0,0,5,,,,,162.34300844000026,None,,,,001,2021_May_07_1421,list_pa,2021.1.4,59.47300966169726,
sounds/gauche.ogg,0.7,,1,0,1,0,0,1,1,0,,,,,163.8431562399979,163.1582877999972,,,,001,2021_May_07_1421,list_pa,2021.1.4,59.47300966169726,
sounds/gauche.ogg,0.7,,1,0,1,0,0,2,2,14,,,,,165.34407273999895,164.65804989999742,,,,001,2021_May_07_1421,list_pa,2021.1.4,59.47300966169726,
sounds/droite.ogg,0.7,,1,0,1,0,0,3,3,48,,,,,166.84401394000233,166.1594855000003,,,,001,2021_May_07_1421,list_pa,2021.1.4,59.47300966169726,
sounds/droite.ogg,0.7,,1,0,1,0,0,4,4,37,,,,,168.34411994000183,167.65924609999638,,,,001,2021_May_07_1421,list_pa,2021.1.4,59.47300966169726,
sounds/droite.ogg,0.7,,1,0,1,0,0,5,5,41,,,,,169.84425983999753,None,,,,001,2021_May_07_1421,list_pa,2021.1.4,59.47300966169726,
sounds/droite.ogg,0.7,,1,0,1,0,0,6,6,31,,,,,171.34485084000116,170.65963850000117,,,,001,2021_May_07_1421,list_pa,2021.1.4,59.47300966169726,
sounds/droite.ogg,0.7,,1,0,1,0,0,7,7,29,,,,,172.8449734399961,172.1600210999968,,,,001,2021_May_07_1421,list_pa,2021.1.4,59.47300966169726,
sounds/droite.ogg,0.7,,1,0,1,0,0,8,8,25,,,,,174.3451224399956,173.6600197000007,,,,001,2021_May_07_1421,list_pa,2021.1.4,59.47300966169726,
sounds/droite.ogg,0.7,,1,0,1,0,0,9,9,35,,,,,175.8452861399979,175.16031289999955,,,,001,2021_May_07_1421,list_pa,2021.1.4,59.47300966169726,
sounds/droite.ogg,0.7,,1,0,1,0,0,10,10,43,,,,,177.34558593999608,176.66058289999637,,,,001,2021_May_07_1421,list_pa,2021.1.4,59.47300966169726,
sounds/droite.ogg,0.7,,1,0,1,0,0,11,11,32,,,,,178.84592843999926,178.1614563999974,,,,001,2021_May_07_1421,list_pa,2021.1.4,59.47300966169726,
sounds/droite.ogg,0.7,,1,0,1,0,0,12,12,46,,,,,180.34651273999552,179.66172939999524,,,,001,2021_May_07_1421,list_pa,2021.1.4,59.47300966169726,
sounds/gauche.ogg,0.7,,1,0,1,0,0,13,13,24,,,,,181.84662134000027,181.1614191999979,,,,001,2021_May_07_1421,list_pa,2021.1.4,59.47300966169726,
sounds/droite.ogg,0.7,,1,0,1,0,0,14,14,28,,,,,183.34779313999533,182.6613481999957,,,,001,2021_May_07_1421,list_pa,2021.1.4,59.47300966169726,
sounds/gauche.ogg,0.7,,1,0,1,0,0,15,15,16,,,,,184.84754003999623,184.16223069999978,,,,001,2021_May_07_1421,list_pa,2021.1.4,59.47300966169726,
sounds/gauche.ogg,0.7,,1,0,1,0,0,16,16,20,,,,,186.34771513999803,None,,,,001,2021_May_07_1421,list_pa,2021.1.4,59.47300966169726,
sounds/gauche.ogg,0.7,,1,0,1,0,0,17,17,17,,,,,187.84807063999833,187.16292560000147,,,,001,2021_May_07_1421,list_pa,2021.1.4,59.47300966169726,
sounds/gauche.ogg,0.7,,1,0,1,0,0,18,18,22,,,,,189.34825813999996,188.66366359999665,,,,001,2021_May_07_1421,list_pa,2021.1.4,59.47300966169726,
sounds/droite.ogg,0.7,,1,0,1,0,0,19,19,27,,,,,190.84913423999896,None,,,,001,2021_May_07_1421,list_pa,2021.1.4,59.47300966169726,
sounds/gauche.ogg,0.7,,1,0,1,0,0,20,20,2,,,,,192.34892064000232,191.6637464000014,,,,001,2021_May_07_1421,list_pa,2021.1.4,59.47300966169726,
sounds/droite.ogg,0.7,,1,0,1,0,0,21,21,39,,,,,193.84971313999776,193.16451229999802,,,,001,2021_May_07_1421,list_pa,2021.1.4,59.47300966169726,
sounds/gauche.ogg,0.7,,1,0,1,0,0,22,22,10,,,,,195.34971323999852,194.66453750000073,,,,001,2021_May_07_1421,list_pa,2021.1.4,59.47300966169726,
sounds/gauche.ogg,0.7,,1,0,1,0,0,23,23,21,,,,,196.8503302399964,196.1651081999953,,,,001,2021_May_07_1421,list_pa,2021.1.4,59.47300966169726,
sounds/gauche.ogg,0.7,,1,0,1,0,0,24,24,11,,,,,198.35031293999563,197.66513249999844,,,,001,2021_May_07_1421,list_pa,2021.1.4,59.47300966169726,
sounds/droite.ogg,0.7,,1,0,1,0,0,25,25,49,,,,,199.85094883999918,199.16663379999954,,,,001,2021_May_07_1421,list_pa,2021.1.4,59.47300966169726,
sounds/droite.ogg,0.7,,1,0,1,0,0,26,26,38,,,,,201.35080384000102,200.6668776000006,,,,001,2021_May_07_1421,list_pa,2021.1.4,59.47300966169726,
sounds/gauche.ogg,0.7,,1,0,1,0,0,27,27,1,,,,,202.85071253999703,202.1658912999992,,,,001,2021_May_07_1421,list_pa,2021.1.4,59.47300966169726,
sounds/gauche.ogg,0.7,,1,0,1,0,0,28,28,4,,,,,204.35168803999622,None,,,,001,2021_May_07_1421,list_pa,2021.1.4,59.47300966169726,
sounds/gauche.ogg,0.7,,1,0,1,0,0,29,29,6,,,,,205.85172314000155,205.16518129999895,,,,001,2021_May_07_1421,list_pa,2021.1.4,59.47300966169726,
sounds/droite.ogg,0.7,,1,0,1,0,0,30,30,34,,,,,207.3520816399956,206.66667710000183,,,,001,2021_May_07_1421,list_pa,2021.1.4,59.47300966169726,
sounds/droite.ogg,0.7,,1,0,1,0,0,31,31,45,,,,,208.85286314000186,None,,,,001,2021_May_07_1421,list_pa,2021.1.4,59.47300966169726,
sounds/gauche.ogg,0.7,,1,0,1,0,0,32,32,7,,,,,210.35261893999777,209.667663799999,,,,001,2021_May_07_1421,list_pa,2021.1.4,59.47300966169726,
sounds/gauche.ogg,0.7,,1,0,1,0,0,33,33,9,,,,,211.85337463999676,211.1679817999975,,,,001,2021_May_07_1421,list_pa,2021.1.4,59.47300966169726,
sounds/droite.ogg,0.7,,1,0,1,0,0,34,34,30,,,,,213.35374984000154,212.66787150000164,,,,001,2021_May_07_1421,list_pa,2021.1.4,59.47300966169726,
sounds/gauche.ogg,0.7,,1,0,1,0,0,35,35,19,,,,,214.8535496399978,214.16809349999676,,,,001,2021_May_07_1421,list_pa,2021.1.4,59.47300966169726,
sounds/droite.ogg,0.7,,1,0,1,0,0,36,36,33,,,,,216.3541595399998,215.66835719999654,,,,001,2021_May_07_1421,list_pa,2021.1.4,59.47300966169726,
sounds/droite.ogg,0.7,,1,0,1,0,0,37,37,47,,,,,217.85417414000185,217.1687851999959,,,,001,2021_May_07_1421,list_pa,2021.1.4,59.47300966169726,
sounds/gauche.ogg,0.7,,1,0,1,0,0,38,38,18,,,,,219.3547617400014,218.6706247999973,,,,001,2021_May_07_1421,list_pa,2021.1.4,59.47300966169726,
sounds/gauche.ogg,0.7,,1,0,1,0,0,39,39,8,,,,,220.85474193999616,220.17084369999793,,,,001,2021_May_07_1421,list_pa,2021.1.4,59.47300966169726,
sounds/droite.ogg,0.7,,1,0,1,0,0,40,40,44,,,,,222.354805939996,221.66985739999654,,,,001,2021_May_07_1421,list_pa,2021.1.4,59.47300966169726,
sounds/droite.ogg,0.7,,1,0,1,0,0,41,41,42,,,,,223.85505713999518,223.1701774999965,,,,001,2021_May_07_1421,list_pa,2021.1.4,59.47300966169726,
sounds/droite.ogg,0.7,,1,0,1,0,0,42,42,40,,,,,225.3553304399953,None,,,,001,2021_May_07_1421,list_pa,2021.1.4,59.47300966169726,
sounds/gauche.ogg,0.7,,1,0,1,0,0,43,43,23,,,,,226.85606293999953,226.17083249999996,,,,001,2021_May_07_1421,list_pa,2021.1.4,59.47300966169726,
sounds/droite.ogg,0.7,,1,0,1,0,0,44,44,26,,,,,228.35645363999865,227.6708964999998,,,,001,2021_May_07_1421,list_pa,2021.1.4,59.47300966169726,
sounds/droite.ogg,0.7,,1,0,1,0,0,45,45,36,,,,,229.85676953999572,229.1715619999959,,,,001,2021_May_07_1421,list_pa,2021.1.4,59.47300966169726,
sounds/gauche.ogg,0.7,,1,0,1,0,0,46,46,3,,,,,231.35695223999718,230.67208430000028,,,,001,2021_May_07_1421,list_pa,2021.1.4,59.47300966169726,
sounds/gauche.ogg,0.7,,1,0,1,0,0,47,47,15,,,,,232.85681984000038,232.17211220000172,,,,001,2021_May_07_1421,list_pa,2021.1.4,59.47300966169726,
sounds/gauche.ogg,0.7,,1,0,1,0,0,48,48,13,,,,,234.37399574000082,None,,,,001,2021_May_07_1421,list_pa,2021.1.4,59.47300966169726,
sounds/gauche.ogg,0.7,,1,0,1,0,0,49,49,12,,,,,235.87457063999827,235.18950359999872,,,,001,2021_May_07_1421,list_pa,2021.1.4,59.47300966169726,
,,30,1,0,1,0,,,,,0,0,0,0,,,236.72291459999542,None,,001,2021_May_07_1421,list_pa,2021.1.4,59.47300966169726,
,,29,1,0,1,0,,,,,0,1,1,1,,,237.7067326999968,None,,001,2021_May_07_1421,list_pa,2021.1.4,59.47300966169726,
,,28,1,0,1,0,,,,,0,2,2,2,,,238.6894753000015,None,,001,2021_May_07_1421,list_pa,2021.1.4,59.47300966169726,
,,27,1,0,1,0,,,,,0,3,3,3,,,239.7067442999978,None,,001,2021_May_07_1421,list_pa,2021.1.4,59.47300966169726,
,,26,1,0,1,0,,,,,0,4,4,4,,,240.70556639999995,None,,001,2021_May_07_1421,list_pa,2021.1.4,59.47300966169726,
,,25,1,0,1,0,,,,,0,5,5,5,,,241.70723089999956,None,,001,2021_May_07_1421,list_pa,2021.1.4,59.47300966169726,
,,24,1,0,1,0,,,,,0,6,6,6,,,242.7074403000006,None,,001,2021_May_07_1421,list_pa,2021.1.4,59.47300966169726,
,,23,1,0,1,0,,,,,0,7,7,7,,,243.70768500000122,None,,001,2021_May_07_1421,list_pa,2021.1.4,59.47300966169726,
,,22,1,0,1,0,,,,,0,8,8,8,,,244.70806019999873,None,,001,2021_May_07_1421,list_pa,2021.1.4,59.47300966169726,
,,21,1,0,1,0,,,,,0,9,9,9,,,245.70813690000068,None,,001,2021_May_07_1421,list_pa,2021.1.4,59.47300966169726,
,,20,1,0,1,0,,,,,0,10,10,10,,,246.70837059999758,None,,001,2021_May_07_1421,list_pa,2021.1.4,59.47300966169726,
,,19,1,0,1,0,,,,,0,11,11,11,,,247.70875289999822,None,,001,2021_May_07_1421,list_pa,2021.1.4,59.47300966169726,
,,18,1,0,1,0,,,,,0,12,12,12,,,248.7083732999963,None,,001,2021_May_07_1421,list_pa,2021.1.4,59.47300966169726,
,,17,1,0,1,0,,,,,0,13,13,13,,,249.70884880000085,None,,001,2021_May_07_1421,list_pa,2021.1.4,59.47300966169726,
,,16,1,0,1,0,,,,,0,14,14,14,,,250.7088941999973,None,,001,2021_May_07_1421,list_pa,2021.1.4,59.47300966169726,
,,15,1,0,1,0,,,,,0,15,15,15,,,251.70944410000084,None,,001,2021_May_07_1421,list_pa,2021.1.4,59.47300966169726,
,,14,1,0,1,0,,,,,0,16,16,16,,,252.70936169999914,None,,001,2021_May_07_1421,list_pa,2021.1.4,59.47300966169726,
,,13,1,0,1,0,,,,,0,17,17,17,,,253.70983790000173,None,,001,2021_May_07_1421,list_pa,2021.1.4,59.47300966169726,
,,12,1,0,1,0,,,,,0,18,18,18,,,254.7098244000008,None,,001,2021_May_07_1421,list_pa,2021.1.4,59.47300966169726,
,,11,1,0,1,0,,,,,0,19,19,19,,,255.71051169999555,None,,001,2021_May_07_1421,list_pa,2021.1.4,59.47300966169726,
,,10,1,0,1,0,,,,,0,20,20,20,,,256.71061049999844,None,,001,2021_May_07_1421,list_pa,2021.1.4,59.47300966169726,
,,9,1,0,1,0,,,,,0,21,21,21,,,257.6943176999994,None,,001,2021_May_07_1421,list_pa,2021.1.4,59.47300966169726,
,,8,1,0,1,0,,,,,0,22,22,22,,,258.6944688000003,None,,001,2021_May_07_1421,list_pa,2021.1.4,59.47300966169726,
,,7,1,0,1,0,,,,,0,23,23,23,,,259.6940734999953,None,,001,2021_May_07_1421,list_pa,2021.1.4,59.47300966169726,
,,6,1,0,1,0,,,,,0,24,24,24,,,260.6949773000015,None,,001,2021_May_07_1421,list_pa,2021.1.4,59.47300966169726,
,,5,1,0,1,0,,,,,0,25,25,25,,,261.69517139999516,None,,001,2021_May_07_1421,list_pa,2021.1.4,59.47300966169726,
,,4,1,0,1,0,,,,,0,26,26,26,,,262.6947585999951,None,,001,2021_May_07_1421,list_pa,2021.1.4,59.47300966169726,
,,3,1,0,1,0,,,,,0,27,27,27,,,263.69554719999724,None,,001,2021_May_07_1421,list_pa,2021.1.4,59.47300966169726,
,,2,1,0,1,0,,,,,0,28,28,28,,,264.6961741999985,None,,001,2021_May_07_1421,list_pa,2021.1.4,59.47300966169726,
,,1,1,0,1,0,,,,,0,29,29,29,,,265.6965745999987,None,,001,2021_May_07_1421,list_pa,2021.1.4,59.47300966169726,
,,0,1,0,1,0,,,,,0,30,30,30,,,266.6966508999976,None,,001,2021_May_07_1421,list_pa,2021.1.4,59.47300966169726,
,,,1,0,1,0,,,,,,,,,,,,,,001,2021_May_07_1421,list_pa,2021.1.4,59.47300966169726,
sounds/droite.ogg,0.7,,2,0,2,0,0,0,0,30,,,,,268.4142899400009,None,,,,001,2021_May_07_1421,list_pa,2021.1.4,59.47300966169726,
sounds/droite.ogg,0.7,,2,0,2,0,0,1,1,46,,,,,269.9144864399983,269.2297303000014,,,,001,2021_May_07_1421,list_pa,2021.1.4,59.47300966169726,
sounds/gauche.ogg,0.7,,2,0,2,0,0,2,2,10,,,,,271.4149651399981,270.7301790999991,,,,001,2021_May_07_1421,list_pa,2021.1.4,59.47300966169726,
sounds/gauche.ogg,0.7,,2,0,2,0,0,3,3,8,,,,,272.9150442399965,272.2301021999956,,,,001,2021_May_07_1421,list_pa,2021.1.4,59.47300966169726,
sounds/gauche.ogg,0.7,,2,0,2,0,0,4,4,3,,,,,274.41579473999957,273.7307906999995,,,,001,2021_May_07_1421,list_pa,2021.1.4,59.47300966169726,
sounds/gauche.ogg,0.7,,2,0,2,0,0,5,5,11,,,,,275.915631139998,275.2308042000004,,,,001,2021_May_07_1421,list_pa,2021.1.4,59.47300966169726,
sounds/gauche.ogg,0.7,,2,0,2,0,0,6,6,13,,,,,277.4157158399954,276.7315118999977,,,,001,2021_May_07_1421,list_pa,2021.1.4,59.47300966169726,
sounds/droite.ogg,0.7,,2,0,2,0,0,7,7,34,,,,,278.91674893999664,278.23148950000177,,,,001,2021_May_07_1421,list_pa,2021.1.4,59.47300966169726,
sounds/gauche.ogg,0.7,,2,0,2,0,0,8,8,18,,,,,280.4169940400003,None,,,,001,2021_May_07_1421,list_pa,2021.1.4,59.47300966169726,
sounds/droite.ogg,0.7,,2,0,2,0,0,9,9,39,,,,,281.9168683399963,281.23232469999493,,,,001,2021_May_07_1421,list_pa,2021.1.4,59.47300966169726,
sounds/gauche.ogg,0.7,,2,0,2,0,0,10,10,23,,,,,283.41789663999737,282.7324509999962,,,,001,2021_May_07_1421,list_pa,2021.1.4,59.47300966169726,
sounds/droite.ogg,0.7,,2,0,2,0,0,11,11,42,,,,,284.91752783999766,None,,,,001,2021_May_07_1421,list_pa,2021.1.4,59.47300966169726,
sounds/gauche.ogg,0.7,,2,0,2,0,0,12,12,14,,,,,286.4183879399985,285.7331713999956,,,,001,2021_May_07_1421,list_pa,2021.1.4,59.47300966169726,
sounds/droite.ogg,0.7,,2,0,2,0,0,13,13,33,,,,,287.9191895399978,287.23327620000055,,,,001,2021_May_07_1421,list_pa,2021.1.4,59.47300966169726,
sounds/droite.ogg,0.7,,2,0,2,0,0,14,14,27,,,,,289.4183378399954,288.7328230999992,,,,001,2021_May_07_1421,list_pa,2021.1.4,59.47300966169726,
sounds/gauche.ogg,0.7,,2,0,2,0,0,15,15,1,,,,,290.9190593399959,290.2335821000015,,,,001,2021_May_07_1421,list_pa,2021.1.4,59.47300966169726,
sounds/droite.ogg,0.7,,2,0,2,0,0,16,16,38,,,,,292.41941303999704,291.7344802000007,,,,001,2021_May_07_1421,list_pa,2021.1.4,59.47300966169726,
sounds/gauche.ogg,0.7,,2,0,2,0,0,17,17,19,,,,,293.9196467400012,293.2349615999992,,,,001,2021_May_07_1421,list_pa,2021.1.4,59.47300966169726,
sounds/droite.ogg,0.7,,2,0,2,0,0,18,18,40,,,,,295.4199517399953,294.7347546999954,,,,001,2021_May_07_1421,list_pa,2021.1.4,59.47300966169726,
sounds/droite.ogg,0.7,,2,0,2,0,0,19,19,29,,,,,296.9207066399955,296.23543139999674,,,,001,2021_May_07_1421,list_pa,2021.1.4,59.47300966169726,
sounds/gauche.ogg,0.7,,2,0,2,0,0,20,20,2,,,,,298.4209669399985,297.7362376999954,,,,001,2021_May_07_1421,list_pa,2021.1.4,59.47300966169726,
sounds/gauche.ogg,0.7,,2,0,2,0,0,21,21,6,,,,,299.9208339399971,299.2364243999982,,,,001,2021_May_07_1421,list_pa,2021.1.4,59.47300966169726,
sounds/droite.ogg,0.7,,2,0,2,0,0,22,22,37,,,,,301.42112273999885,300.73606160000054,,,,001,2021_May_07_1421,list_pa,2021.1.4,59.47300966169726,
sounds/gauche.ogg,0.7,,2,0,2,0,0,23,23,20,,,,,302.9215888399973,None,,,,001,2021_May_07_1421,list_pa,2021.1.4,59.47300966169726,
sounds/gauche.ogg,0.7,,2,0,2,0,0,24,24,12,,,,,304.42218143999855,303.736490999996,,,,001,2021_May_07_1421,list_pa,2021.1.4,59.47300966169726,
sounds/droite.ogg,0.7,,2,0,2,0,0,25,25,36,,,,,305.92261323999776,305.2367499999964,,,,001,2021_May_07_1421,list_pa,2021.1.4,59.47300966169726,
sounds/gauche.ogg,0.7,,2,0,2,0,0,26,26,5,,,,,307.4228995400023,306.7371992999979,,,,001,2021_May_07_1421,list_pa,2021.1.4,59.47300966169726,
sounds/gauche.ogg,0.7,,2,0,2,0,0,27,27,7,,,,,308.922695840001,308.23725620000187,,,,001,2021_May_07_1421,list_pa,2021.1.4,59.47300966169726,
sounds/gauche.ogg,0.7,,2,0,2,0,0,28,28,9,,,,,310.42282413999567,309.7375769999999,,,,001,2021_May_07_1421,list_pa,2021.1.4,59.47300966169726,
sounds/droite.ogg,0.7,,2,0,2,0,0,29,29,41,,,,,311.9247336399982,311.2377273999955,,,,001,2021_May_07_1421,list_pa,2021.1.4,59.47300966169726,
sounds/droite.ogg,0.7,,2,0,2,0,0,30,30,32,,,,,313.4235402399987,312.7382972999985,,,,001,2021_May_07_1421,list_pa,2021.1.4,59.47300966169726,
sounds/droite.ogg,0.7,,2,0,2,0,0,31,31,44,,,,,314.92428694000193,314.23831809999683,,,,001,2021_May_07_1421,list_pa,2021.1.4,59.47300966169726,
sounds/gauche.ogg,0.7,,2,0,2,0,0,32,32,16,,,,,316.4240126400015,315.7387860000017,,,,001,2021_May_07_1421,list_pa,2021.1.4,59.47300966169726,
sounds/gauche.ogg,0.7,,2,0,2,0,0,33,33,21,,,,,317.9244833399986,317.2382878999997,,,,001,2021_May_07_1421,list_pa,2021.1.4,59.47300966169726,
sounds/gauche.ogg,0.7,,2,0,2,0,0,34,34,15,,,,,319.42482944000005,None,,,,001,2021_May_07_1421,list_pa,2021.1.4,59.47300966169726,
sounds/gauche.ogg,0.7,,2,0,2,0,0,35,35,17,,,,,320.92548714000225,320.240232199998,,,,001,2021_May_07_1421,list_pa,2021.1.4,59.47300966169726,
sounds/droite.ogg,0.7,,2,0,2,0,0,36,36,31,,,,,322.425017940002,321.74008519999916,,,,001,2021_May_07_1421,list_pa,2021.1.4,59.47300966169726,
sounds/droite.ogg,0.7,,2,0,2,0,0,37,37,28,,,,,323.9253344399964,323.2407353000017,,,,001,2021_May_07_1421,list_pa,2021.1.4,59.47300966169726,
sounds/droite.ogg,0.7,,2,0,2,0,0,38,38,35,,,,,325.42548794000106,324.73985349999566,,,,001,2021_May_07_1421,list_pa,2021.1.4,59.47300966169726,
sounds/droite.ogg,0.7,,2,0,2,0,0,39,39,43,,,,,326.92578884000034,326.2409353999974,,,,001,2021_May_07_1421,list_pa,2021.1.4,59.47300966169726,
sounds/droite.ogg,0.7,,2,0,2,0,0,40,40,48,,,,,328.42665583999553,327.74135849999584,,,,001,2021_May_07_1421,list_pa,2021.1.4,59.47300966169726,
sounds/gauche.ogg,0.7,,2,0,2,0,0,41,41,22,,,,,329.9273036400024,329.24172140000155,,,,001,2021_May_07_1421,list_pa,2021.1.4,59.47300966169726,
sounds/droite.ogg,0.7,,2,0,2,0,0,42,42,45,,,,,331.42651563999755,330.7422157999972,,,,001,2021_May_07_1421,list_pa,2021.1.4,59.47300966169726,
sounds/droite.ogg,0.7,,2,0,2,0,0,43,43,49,,,,,332.9277657399995,332.24236089999613,,,,001,2021_May_07_1421,list_pa,2021.1.4,59.47300966169726,
sounds/droite.ogg,0.7,,2,0,2,0,0,44,44,25,,,,,334.4277213399961,333.74292309999873,,,,001,2021_May_07_1421,list_pa,2021.1.4,59.47300966169726,
sounds/droite.ogg,0.7,,2,0,2,0,0,45,45,47,,,,,335.9285523400009,None,,,,001,2021_May_07_1421,list_pa,2021.1.4,59.47300966169726,
sounds/gauche.ogg,0.7,,2,0,2,0,0,46,46,24,,,,,337.4285957399967,336.7432847999953,,,,001,2021_May_07_1421,list_pa,2021.1.4,59.47300966169726,
sounds/gauche.ogg,0.7,,2,0,2,0,0,47,47,0,,,,,338.927803340002,338.2438190999965,,,,001,2021_May_07_1421,list_pa,2021.1.4,59.47300966169726,
sounds/gauche.ogg,0.7,,2,0,2,0,0,48,48,4,,,,,340.4293355399983,None,,,,001,2021_May_07_1421,list_pa,2021.1.4,59.47300966169726,
sounds/droite.ogg,0.7,,2,0,2,0,0,49,49,26,,,,,341.92921583999635,341.24422739999864,,,,001,2021_May_07_1421,list_pa,2021.1.4,59.47300966169726,
,,30,2,0,2,0,,,,,0,0,0,0,,,342.76013019999664,None,,001,2021_May_07_1421,list_pa,2021.1.4,59.47300966169726,
,,29,2,0,2,0,,,,,0,1,1,1,,,343.76138619999983,None,,001,2021_May_07_1421,list_pa,2021.1.4,59.47300966169726,
,,28,2,0,2,0,,,,,0,2,2,2,,,344.76082199999655,None,,001,2021_May_07_1421,list_pa,2021.1.4,59.47300966169726,
,,27,2,0,2,0,,,,,0,3,3,3,,,345.7618070999961,None,,001,2021_May_07_1421,list_pa,2021.1.4,59.47300966169726,
,,26,2,0,2,0,,,,,0,4,4,4,,,346.76196889999846,None,,001,2021_May_07_1421,list_pa,2021.1.4,59.47300966169726,
,,25,2,0,2,0,,,,,0,5,5,5,,,347.76214739999705,None,,001,2021_May_07_1421,list_pa,2021.1.4,59.47300966169726,
,,24,2,0,2,0,,,,,0,6,6,6,,,348.7622424000001,None,,001,2021_May_07_1421,list_pa,2021.1.4,59.47300966169726,
,,23,2,0,2,0,,,,,0,7,7,7,,,349.762810799999,None,,001,2021_May_07_1421,list_pa,2021.1.4,59.47300966169726,
,,22,2,0,2,0,,,,,0,8,8,8,,,350.7630285999985,None,,001,2021_May_07_1421,list_pa,2021.1.4,59.47300966169726,
,,21,2,0,2,0,,,,,0,9,9,9,,,351.76323830000183,None,,001,2021_May_07_1421,list_pa,2021.1.4,59.47300966169726,
,,20,2,0,2,0,,,,,0,10,10,10,,,352.7632022999969,None,,001,2021_May_07_1421,list_pa,2021.1.4,59.47300966169726,
,,19,2,0,2,0,,,,,0,11,11,11,,,353.74717280000186,None,,001,2021_May_07_1421,list_pa,2021.1.4,59.47300966169726,
,,18,2,0,2,0,,,,,0,12,12,12,,,354.7638455999986,None,,001,2021_May_07_1421,list_pa,2021.1.4,59.47300966169726,
,,17,2,0,2,0,,,,,0,13,13,13,,,355.74711769999703,None,,001,2021_May_07_1421,list_pa,2021.1.4,59.47300966169726,
,,16,2,0,2,0,,,,,0,14,14,14,,,356.74736409999605,None,,001,2021_May_07_1421,list_pa,2021.1.4,59.47300966169726,
,,15,2,0,2,0,,,,,0,15,15,15,,,357.747394500002,None,,001,2021_May_07_1421,list_pa,2021.1.4,59.47300966169726,
,,14,2,0,2,0,,,,,0,16,16,16,,,358.7474723999985,None,,001,2021_May_07_1421,list_pa,2021.1.4,59.47300966169726,
,,13,2,0,2,0,,,,,0,17,17,17,,,359.7648270999998,None,,001,2021_May_07_1421,list_pa,2021.1.4,59.47300966169726,
,,12,2,0,2,0,,,,,0,18,18,18,,,360.7480643000017,None,,001,2021_May_07_1421,list_pa,2021.1.4,59.47300966169726,
,,11,2,0,2,0,,,,,0,19,19,19,,,361.7480026999983,None,,001,2021_May_07_1421,list_pa,2021.1.4,59.47300966169726,
,,10,2,0,2,0,,,,,0,20,20,20,,,362.7482605999976,None,,001,2021_May_07_1421,list_pa,2021.1.4,59.47300966169726,
,,9,2,0,2,0,,,,,0,21,21,21,,,363.74864839999645,None,,001,2021_May_07_1421,list_pa,2021.1.4,59.47300966169726,
,,8,2,0,2,0,,,,,0,22,22,22,,,364.7488224999979,None,,001,2021_May_07_1421,list_pa,2021.1.4,59.47300966169726,
,,7,2,0,2,0,,,,,0,23,23,23,,,365.7488383999953,None,,001,2021_May_07_1421,list_pa,2021.1.4,59.47300966169726,
,,6,2,0,2,0,,,,,0,24,24,24,,,366.74953559999994,None,,001,2021_May_07_1421,list_pa,2021.1.4,59.47300966169726,
,,5,2,0,2,0,,,,,0,25,25,25,,,367.7495280000003,None,,001,2021_May_07_1421,list_pa,2021.1.4,59.47300966169726,
,,4,2,0,2,0,,,,,0,26,26,26,,,368.7494869000002,None,,001,2021_May_07_1421,list_pa,2021.1.4,59.47300966169726,
,,3,2,0,2,0,,,,,0,27,27,27,,,369.75002289999975,None,,001,2021_May_07_1421,list_pa,2021.1.4,59.47300966169726,
,,2,2,0,2,0,,,,,0,28,28,28,,,370.75028459999885,None,,001,2021_May_07_1421,list_pa,2021.1.4,59.47300966169726,
,,1,2,0,2,0,,,,,0,29,29,29,,,371.75072949999594,None,,001,2021_May_07_1421,list_pa,2021.1.4,59.47300966169726,
,,0,2,0,2,0,,,,,0,30,30,30,,,372.7508414999975,None,,001,2021_May_07_1421,list_pa,2021.1.4,59.47300966169726,
,,,2,0,2,0,,,,,,,,,,,,,,001,2021_May_07_1421,list_pa,2021.1.4,59.47300966169726,
sounds/gauche.ogg,0.7,,3,0,3,0,0,0,0,21,,,,,374.4532329400005,None,,,,001,2021_May_07_1421,list_pa,2021.1.4,59.47300966169726,
sounds/gauche.ogg,0.7,,3,0,3,0,0,1,1,14,,,,,375.95277983999915,375.2673561999982,,,,001,2021_May_07_1421,list_pa,2021.1.4,59.47300966169726,
sounds/gauche.ogg,0.7,,3,0,3,0,0,2,2,10,,,,,377.452815440001,376.76824959999794,,,,001,2021_May_07_1421,list_pa,2021.1.4,59.47300966169726,
sounds/droite.ogg,0.7,,3,0,3,0,0,3,3,25,,,,,378.9540978400015,None,,,,001,2021_May_07_1421,list_pa,2021.1.4,59.47300966169726,
sounds/gauche.ogg,0.7,,3,0,3,0,0,4,4,15,,,,,380.4537743399975,379.7684240000017,,,,001,2021_May_07_1421,list_pa,2021.1.4,59.47300966169726,
sounds/droite.ogg,0.7,,3,0,3,0,0,5,5,31,,,,,381.9539208399998,381.27049969999644,,,,001,2021_May_07_1421,list_pa,2021.1.4,59.47300966169726,
sounds/gauche.ogg,0.7,,3,0,3,0,0,6,6,8,,,,,383.454232239999,382.76814029999514,,,,001,2021_May_07_1421,list_pa,2021.1.4,59.47300966169726,
sounds/gauche.ogg,0.7,,3,0,3,0,0,7,7,17,,,,,384.95540093999955,384.27010779999546,,,,001,2021_May_07_1421,list_pa,2021.1.4,59.47300966169726,
sounds/droite.ogg,0.7,,3,0,3,0,0,8,8,38,,,,,386.45501633999595,385.76983689999906,,,,001,2021_May_07_1421,list_pa,2021.1.4,59.47300966169726,
sounds/droite.ogg,0.7,,3,0,3,0,0,9,9,46,,,,,387.95493313999543,387.2702083999975,,,,001,2021_May_07_1421,list_pa,2021.1.4,59.47300966169726,
sounds/gauche.ogg,0.7,,3,0,3,0,0,10,10,7,,,,,389.45581913999706,388.77069330000086,,,,001,2021_May_07_1421,list_pa,2021.1.4,59.47300966169726,
sounds/droite.ogg,0.7,,3,0,3,0,0,11,11,32,,,,,390.9556042399978,390.2710554000005,,,,001,2021_May_07_1421,list_pa,2021.1.4,59.47300966169726,
sounds/gauche.ogg,0.7,,3,0,3,0,0,12,12,16,,,,,392.4564229399963,391.771264899995,,,,001,2021_May_07_1421,list_pa,2021.1.4,59.47300966169726,
sounds/gauche.ogg,0.7,,3,0,3,0,0,13,13,12,,,,,393.9539840400008,393.2716461999953,,,,001,2021_May_07_1421,list_pa,2021.1.4,59.47300966169726,
sounds/gauche.ogg,0.7,,3,0,3,0,0,14,14,0,,,,,395.45669833999784,None,,,,001,2021_May_07_1421,list_pa,2021.1.4,59.47300966169726,
sounds/droite.ogg,0.7,,3,0,3,0,0,15,15,43,,,,,396.95680874000175,396.271771599997,,,,001,2021_May_07_1421,list_pa,2021.1.4,59.47300966169726,
sounds/gauche.ogg,0.7,,3,0,3,0,0,16,16,4,,,,,398.45750833999557,397.77258350000193,,,,001,2021_May_07_1421,list_pa,2021.1.4,59.47300966169726,
sounds/gauche.ogg,0.7,,3,0,3,0,0,17,17,13,,,,,399.95773953999526,None,,,,001,2021_May_07_1421,list_pa,2021.1.4,59.47300966169726,
sounds/droite.ogg,0.7,,3,0,3,0,0,18,18,27,,,,,401.4581440399976,400.7728974999991,,,,001,2021_May_07_1421,list_pa,2021.1.4,59.47300966169726,
sounds/droite.ogg,0.7,,3,0,3,0,0,19,19,40,,,,,402.9588222399958,402.27355589999934,,,,001,2021_May_07_1421,list_pa,2021.1.4,59.47300966169726,
sounds/gauche.ogg,0.7,,3,0,3,0,0,20,20,11,,,,,404.4755331399989,None,,,,001,2021_May_07_1421,list_pa,2021.1.4,59.47300966169726,
sounds/gauche.ogg,0.7,,3,0,3,0,0,21,21,20,,,,,405.9757698399968,405.29082539999945,,,,001,2021_May_07_1421,list_pa,2021.1.4,59.47300966169726,
sounds/gauche.ogg,0.7,,3,0,3,0,0,22,22,1,,,,,407.4755236399993,406.7907341999962,,,,001,2021_May_07_1421,list_pa,2021.1.4,59.47300966169726,
sounds/droite.ogg,0.7,,3,0,3,0,0,23,23,47,,,,,408.97572754000214,408.29133770000044,,,,001,2021_May_07_1421,list_pa,2021.1.4,59.47300966169726,
sounds/gauche.ogg,0.7,,3,0,3,0,0,24,24,5,,,,,410.4765974399976,409.791246599998,,,,001,2021_May_07_1421,list_pa,2021.1.4,59.47300966169726,
sounds/droite.ogg,0.7,,3,0,3,0,0,25,25,44,,,,,411.97651923999877,411.29190709999966,,,,001,2021_May_07_1421,list_pa,2021.1.4,59.47300966169726,
sounds/droite.ogg,0.7,,3,0,3,0,0,26,26,28,,,,,413.47710203999816,412.79196460000094,,,,001,2021_May_07_1421,list_pa,2021.1.4,59.47300966169726,
sounds/droite.ogg,0.7,,3,0,3,0,0,27,27,34,,,,,414.97693244000186,None,,,,001,2021_May_07_1421,list_pa,2021.1.4,59.47300966169726,
sounds/droite.ogg,0.7,,3,0,3,0,0,28,28,26,,,,,416.4776389399973,415.7928238999957,,,,001,2021_May_07_1421,list_pa,2021.1.4,59.47300966169726,
sounds/droite.ogg,0.7,,3,0,3,0,0,29,29,30,,,,,417.97794543999555,417.2928677999953,,,,001,2021_May_07_1421,list_pa,2021.1.4,59.47300966169726,
sounds/gauche.ogg,0.7,,3,0,3,0,0,30,30,24,,,,,419.47833453999704,418.7931394999978,,,,001,2021_May_07_1421,list_pa,2021.1.4,59.47300966169726,
sounds/gauche.ogg,0.7,,3,0,3,0,0,31,31,18,,,,,420.9782718399998,420.2935361999989,,,,001,2021_May_07_1421,list_pa,2021.1.4,59.47300966169726,
sounds/droite.ogg,0.7,,3,0,3,0,0,32,32,35,,,,,422.47856313999876,421.7942347999997,,,,001,2021_May_07_1421,list_pa,2021.1.4,59.47300966169726,
sounds/gauche.ogg,0.7,,3,0,3,0,0,33,33,2,,,,,423.97981193999806,423.29472779999924,,,,001,2021_May_07_1421,list_pa,2021.1.4,59.47300966169726,
sounds/gauche.ogg,0.7,,3,0,3,0,0,34,34,6,,,,,425.4792937399958,424.7946071999977,,,,001,2021_May_07_1421,list_pa,2021.1.4,59.47300966169726,
sounds/gauche.ogg,0.7,,3,0,3,0,0,35,35,9,,,,,426.9799153399996,426.29367929999717,,,,001,2021_May_07_1421,list_pa,2021.1.4,59.47300966169726,
sounds/droite.ogg,0.7,,3,0,3,0,0,36,36,42,,,,,428.4805730400018,427.79607199999737,,,,001,2021_May_07_1421,list_pa,2021.1.4,59.47300966169726,
sounds/gauche.ogg,0.7,,3,0,3,0,0,37,37,19,,,,,429.9810412400017,None,,,,001,2021_May_07_1421,list_pa,2021.1.4,59.47300966169726,
sounds/droite.ogg,0.7,,3,0,3,0,0,38,38,48,,,,,431.48079993999784,None,,,,001,2021_May_07_1421,list_pa,2021.1.4,59.47300966169726,
sounds/droite.ogg,0.7,,3,0,3,0,0,39,39,49,,,,,432.98091923999675,432.2966366999972,,,,001,2021_May_07_1421,list_pa,2021.1.4,59.47300966169726,
sounds/gauche.ogg,0.7,,3,0,3,0,0,40,40,3,,,,,434.48216384000045,None,,,,001,2021_May_07_1421,list_pa,2021.1.4,59.47300966169726,
sounds/droite.ogg,0.7,,3,0,3,0,0,41,41,37,,,,,435.9816786400021,435.2967797999954,,,,001,2021_May_07_1421,list_pa,2021.1.4,59.47300966169726,
sounds/gauche.ogg,0.7,,3,0,3,0,0,42,42,22,,,,,437.4827700399961,436.7968000999972,,,,001,2021_May_07_1421,list_pa,2021.1.4,59.47300966169726,
sounds/gauche.ogg,0.7,,3,0,3,0,0,43,43,23,,,,,438.98238533999904,438.29727640000056,,,,001,2021_May_07_1421,list_pa,2021.1.4,59.47300966169726,
sounds/droite.ogg,0.7,,3,0,3,0,0,44,44,41,,,,,440.48299583999835,439.79744909999863,,,,001,2021_May_07_1421,list_pa,2021.1.4,59.47300966169726,
sounds/droite.ogg,0.7,,3,0,3,0,0,45,45,33,,,,,441.9833340399979,441.297421700001,,,,001,2021_May_07_1421,list_pa,2021.1.4,59.47300966169726,
sounds/droite.ogg,0.7,,3,0,3,0,0,46,46,39,,,,,443.4831460399997,442.79769249999663,,,,001,2021_May_07_1421,list_pa,2021.1.4,59.47300966169726,
sounds/droite.ogg,0.7,,3,0,3,0,0,47,47,29,,,,,444.98358693999546,444.29854659999546,,,,001,2021_May_07_1421,list_pa,2021.1.4,59.47300966169726,
sounds/droite.ogg,0.7,,3,0,3,0,0,48,48,36,,,,,446.4838639400019,445.79833320000034,,,,001,2021_May_07_1421,list_pa,2021.1.4,59.47300966169726,
sounds/droite.ogg,0.7,,3,0,3,0,0,49,49,45,,,,,447.9845323399983,447.29925009999715,,,,001,2021_May_07_1421,list_pa,2021.1.4,59.47300966169726,
,,30,3,0,3,0,,,,,0,0,0,0,,,448.8148426999978,None,,001,2021_May_07_1421,list_pa,2021.1.4,59.47300966169726,
,,29,3,0,3,0,,,,,0,1,1,1,,,449.8162697000007,None,,001,2021_May_07_1421,list_pa,2021.1.4,59.47300966169726,
,,28,3,0,3,0,,,,,0,2,2,2,,,450.8170457000015,None,,001,2021_May_07_1421,list_pa,2021.1.4,59.47300966169726,
,,27,3,0,3,0,,,,,0,3,3,3,,,451.8165661999956,None,,001,2021_May_07_1421,list_pa,2021.1.4,59.47300966169726,
,,26,3,0,3,0,,,,,0,4,4,4,,,452.8169005000018,None,,001,2021_May_07_1421,list_pa,2021.1.4,59.47300966169726,
,,25,3,0,3,0,,,,,0,5,5,5,,,453.817091799996,None,,001,2021_May_07_1421,list_pa,2021.1.4,59.47300966169726,
,,24,3,0,3,0,,,,,0,6,6,6,,,454.8171371999997,None,,001,2021_May_07_1421,list_pa,2021.1.4,59.47300966169726,
,,23,3,0,3,0,,,,,0,7,7,7,,,455.81743619999907,None,,001,2021_May_07_1421,list_pa,2021.1.4,59.47300966169726,
,,22,3,0,3,0,,,,,0,8,8,8,,,456.817976499995,None,,001,2021_May_07_1421,list_pa,2021.1.4,59.47300966169726,
,,21,3,0,3,0,,,,,0,9,9,9,,,457.8176527999967,None,,001,2021_May_07_1421,list_pa,2021.1.4,59.47300966169726,
,,20,3,0,3,0,,,,,0,10,10,10,,,458.81779119999555,None,,001,2021_May_07_1421,list_pa,2021.1.4,59.47300966169726,
,,19,3,0,3,0,,,,,0,11,11,11,,,459.81799709999905,None,,001,2021_May_07_1421,list_pa,2021.1.4,59.47300966169726,
,,18,3,0,3,0,,,,,0,12,12,12,,,460.8181731000004,None,,001,2021_May_07_1421,list_pa,2021.1.4,59.47300966169726,
,,17,3,0,3,0,,,,,0,13,13,13,,,461.8182874999984,None,,001,2021_May_07_1421,list_pa,2021.1.4,59.47300966169726,
,,16,3,0,3,0,,,,,0,14,14,14,,,462.8185577999975,None,,001,2021_May_07_1421,list_pa,2021.1.4,59.47300966169726,
,,15,3,0,3,0,,,,,0,15,15,15,,,463.8192865999954,None,,001,2021_May_07_1421,list_pa,2021.1.4,59.47300966169726,
,,14,3,0,3,0,,,,,0,16,16,16,,,464.819634200001,None,,001,2021_May_07_1421,list_pa,2021.1.4,59.47300966169726,
,,13,3,0,3,0,,,,,0,17,17,17,,,465.8195089000001,None,,001,2021_May_07_1421,list_pa,2021.1.4,59.47300966169726,
,,12,3,0,3,0,,,,,0,18,18,18,,,466.802941199996,None,,001,2021_May_07_1421,list_pa,2021.1.4,59.47300966169726,
,,11,3,0,3,0,,,,,0,19,19,19,,,467.80353959999775,None,,001,2021_May_07_1421,list_pa,2021.1.4,59.47300966169726,
,,10,3,0,3,0,,,,,0,20,20,20,,,468.80349790000037,None,,001,2021_May_07_1421,list_pa,2021.1.4,59.47300966169726,
,,9,3,0,3,0,,,,,0,21,21,21,,,469.8037953000021,None,,001,2021_May_07_1421,list_pa,2021.1.4,59.47300966169726,
,,8,3,0,3,0,,,,,0,22,22,22,,,470.80422729999555,None,,001,2021_May_07_1421,list_pa,2021.1.4,59.47300966169726,
,,7,3,0,3,0,,,,,0,23,23,23,,,471.80412789999536,None,,001,2021_May_07_1421,list_pa,2021.1.4,59.47300966169726,
,,6,3,0,3,0,,,,,0,24,24,24,,,472.8048667999974,None,,001,2021_May_07_1421,list_pa,2021.1.4,59.47300966169726,
,,5,3,0,3,0,,,,,0,25,25,25,,,473.80474839999806,None,,001,2021_May_07_1421,list_pa,2021.1.4,59.47300966169726,
,,4,3,0,3,0,,,,,0,26,26,26,,,474.80469269999594,None,,001,2021_May_07_1421,list_pa,2021.1.4,59.47300966169726,
,,3,3,0,3,0,,,,,0,27,27,27,,,475.805523899995,None,,001,2021_May_07_1421,list_pa,2021.1.4,59.47300966169726,
,,2,3,0,3,0,,,,,0,28,28,28,,,476.8051431999993,None,,001,2021_May_07_1421,list_pa,2021.1.4,59.47300966169726,
,,1,3,0,3,0,,,,,0,29,29,29,,,477.80582290000166,None,,001,2021_May_07_1421,list_pa,2021.1.4,59.47300966169726,
,,0,3,0,3,0,,,,,0,30,30,30,,,478.80553990000044,None,,001,2021_May_07_1421,list_pa,2021.1.4,59.47300966169726,
,,,3,0,3,0,,,,,,,,,,,,,,001,2021_May_07_1421,list_pa,2021.1.4,59.47300966169726,
sounds/gauche.ogg,0.7,,4,0,4,0,0,0,0,20,,,,,480.5244272399992,None,,,,001,2021_May_07_1421,list_pa,2021.1.4,59.47300966169726,
sounds/droite.ogg,0.7,,4,0,4,0,0,1,1,34,,,,,482.0241761400008,481.3393967000011,,,,001,2021_May_07_1421,list_pa,2021.1.4,59.47300966169726,
sounds/droite.ogg,0.7,,4,0,4,0,0,2,2,29,,,,,483.52468744000146,482.83940520000033,,,,001,2021_May_07_1421,list_pa,2021.1.4,59.47300966169726,
sounds/gauche.ogg,0.7,,4,0,4,0,0,3,3,4,,,,,485.02491123999573,484.3398331999997,,,,001,2021_May_07_1421,list_pa,2021.1.4,59.47300966169726,
sounds/gauche.ogg,0.7,,4,0,4,0,0,4,4,22,,,,,486.52498464000166,485.8403991000014,,,,001,2021_May_07_1421,list_pa,2021.1.4,59.47300966169726,
sounds/gauche.ogg,0.7,,4,0,4,0,0,5,5,17,,,,,488.02577114000235,487.3406541000004,,,,001,2021_May_07_1421,list_pa,2021.1.4,59.47300966169726,
sounds/droite.ogg,0.7,,4,0,4,0,0,6,6,41,,,,,489.5253802400017,None,,,,001,2021_May_07_1421,list_pa,2021.1.4,59.47300966169726,
sounds/droite.ogg,0.7,,4,0,4,0,0,7,7,25,,,,,491.025878940001,490.3414388999954,,,,001,2021_May_07_1421,list_pa,2021.1.4,59.47300966169726,
sounds/droite.ogg,0.7,,4,0,4,0,0,8,8,43,,,,,492.52616133999766,491.8413670000009,,,,001,2021_May_07_1421,list_pa,2021.1.4,59.47300966169726,
sounds/gauche.ogg,0.7,,4,0,4,0,0,9,9,3,,,,,494.0263038399986,493.3415685,,,,001,2021_May_07_1421,list_pa,2021.1.4,59.47300966169726,
sounds/gauche.ogg,0.7,,4,0,4,0,0,10,10,12,,,,,495.5269393399991,494.84173590000137,,,,001,2021_May_07_1421,list_pa,2021.1.4,59.47300966169726,
sounds/droite.ogg,0.7,,4,0,4,0,0,11,11,45,,,,,497.02771654000173,496.3422873000018,,,,001,2021_May_07_1421,list_pa,2021.1.4,59.47300966169726,
sounds/gauche.ogg,0.7,,4,0,4,0,0,12,12,23,,,,,498.52765824000164,497.8425950000019,,,,001,2021_May_07_1421,list_pa,2021.1.4,59.47300966169726,
sounds/droite.ogg,0.7,,4,0,4,0,0,13,13,42,,,,,500.0280441400006,499.34228040000016,,,,001,2021_May_07_1421,list_pa,2021.1.4,59.47300966169726,
sounds/gauche.ogg,0.7,,4,0,4,0,0,14,14,13,,,,,501.5281714400022,500.84459849999985,,,,001,2021_May_07_1421,list_pa,2021.1.4,59.47300966169726,
sounds/gauche.ogg,0.7,,4,0,4,0,0,15,15,10,,,,,503.0283720400017,502.342885500002,,,,001,2021_May_07_1421,list_pa,2021.1.4,59.47300966169726,
sounds/gauche.ogg,0.7,,4,0,4,0,0,16,16,18,,,,,504.5289258399986,503.8436986000015,,,,001,2021_May_07_1421,list_pa,2021.1.4,59.47300966169726,
sounds/droite.ogg,0.7,,4,0,4,0,0,17,17,47,,,,,506.0293354399961,505.34379199999967,,,,001,2021_May_07_1421,list_pa,2021.1.4,59.47300966169726,
sounds/gauche.ogg,0.7,,4,0,4,0,0,18,18,16,,,,,507.5294466399988,506.84461490000103,,,,001,2021_May_07_1421,list_pa,2021.1.4,59.47300966169726,
sounds/droite.ogg,0.7,,4,0,4,0,0,19,19,28,,,,,509.02988223999785,508.3447809999998,,,,001,2021_May_07_1421,list_pa,2021.1.4,59.47300966169726,
sounds/droite.ogg,0.7,,4,0,4,0,0,20,20,40,,,,,510.53054854000004,None,,,,001,2021_May_07_1421,list_pa,2021.1.4,59.47300966169726,
sounds/droite.ogg,0.7,,4,0,4,0,0,21,21,33,,,,,512.0304410399964,511.344640299998,,,,001,2021_May_07_1421,list_pa,2021.1.4,59.47300966169726,
sounds/droite.ogg,0.7,,4,0,4,0,0,22,22,35,,,,,513.5313868400023,None,,,,001,2021_May_07_1421,list_pa,2021.1.4,59.47300966169726,
sounds/droite.ogg,0.7,,4,0,4,0,0,23,23,46,,,,,515.0316541400003,514.3458381000019,,,,001,2021_May_07_1421,list_pa,2021.1.4,59.47300966169726,
sounds/gauche.ogg,0.7,,4,0,4,0,0,24,24,6,,,,,516.5317453399963,515.8462683999969,,,,001,2021_May_07_1421,list_pa,2021.1.4,59.47300966169726,
sounds/droite.ogg,0.7,,4,0,4,0,0,25,25,31,,,,,518.0319925400014,517.3465230000002,,,,001,2021_May_07_1421,list_pa,2021.1.4,59.47300966169726,
sounds/droite.ogg,0.7,,4,0,4,0,0,26,26,39,,,,,519.5331197399988,518.8465028999999,,,,001,2021_May_07_1421,list_pa,2021.1.4,59.47300966169726,
sounds/gauche.ogg,0.7,,4,0,4,0,0,27,27,5,,,,,521.033108039997,520.3468347000016,,,,001,2021_May_07_1421,list_pa,2021.1.4,59.47300966169726,
sounds/gauche.ogg,0.7,,4,0,4,0,0,28,28,21,,,,,522.5325741399989,521.8472365999987,,,,001,2021_May_07_1421,list_pa,2021.1.4,59.47300966169726,
sounds/gauche.ogg,0.7,,4,0,4,0,0,29,29,1,,,,,524.0328887400007,523.3477649999986,,,,001,2021_May_07_1421,list_pa,2021.1.4,59.47300966169726,
sounds/droite.ogg,0.7,,4,0,4,0,0,30,30,27,,,,,525.5337425399972,524.8478114999962,,,,001,2021_May_07_1421,list_pa,2021.1.4,59.47300966169726,
sounds/droite.ogg,0.7,,4,0,4,0,0,31,31,44,,,,,527.0334606399971,526.3483170999971,,,,001,2021_May_07_1421,list_pa,2021.1.4,59.47300966169726,
sounds/gauche.ogg,0.7,,4,0,4,0,0,32,32,15,,,,,528.5339454399997,None,,,,001,2021_May_07_1421,list_pa,2021.1.4,59.47300966169726,
sounds/gauche.ogg,0.7,,4,0,4,0,0,33,33,24,,,,,530.034296039999,529.3485503999982,,,,001,2021_May_07_1421,list_pa,2021.1.4,59.47300966169726,
sounds/droite.ogg,0.7,,4,0,4,0,0,34,34,26,,,,,531.5340321399977,530.849538399998,,,,001,2021_May_07_1421,list_pa,2021.1.4,59.47300966169726,
sounds/gauche.ogg,0.7,,4,0,4,0,0,35,35,8,,,,,533.0346855399963,532.349473000002,,,,001,2021_May_07_1421,list_pa,2021.1.4,59.47300966169726,
sounds/droite.ogg,0.7,,4,0,4,0,0,36,36,48,,,,,534.5334437399994,533.8499565999955,,,,001,2021_May_07_1421,list_pa,2021.1.4,59.47300966169726,
sounds/gauche.ogg,0.7,,4,0,4,0,0,37,37,7,,,,,536.0351115400023,535.3502041999964,,,,001,2021_May_07_1421,list_pa,2021.1.4,59.47300966169726,
sounds/droite.ogg,0.7,,4,0,4,0,0,38,38,36,,,,,537.535254840002,536.8497228999986,,,,001,2021_May_07_1421,list_pa,2021.1.4,59.47300966169726,
sounds/gauche.ogg,0.7,,4,0,4,0,0,39,39,19,,,,,539.0355653400017,538.3508294999992,,,,001,2021_May_07_1421,list_pa,2021.1.4,59.47300966169726,
sounds/gauche.ogg,0.7,,4,0,4,0,0,40,40,2,,,,,540.5357319399969,539.8513821000015,,,,001,2021_May_07_1421,list_pa,2021.1.4,59.47300966169726,
sounds/droite.ogg,0.7,,4,0,4,0,0,41,41,30,,,,,542.0362260399976,541.3515953999959,,,,001,2021_May_07_1421,list_pa,2021.1.4,59.47300966169726,
sounds/gauche.ogg,0.7,,4,0,4,0,0,42,42,0,,,,,543.5368026400007,542.851949099997,,,,001,2021_May_07_1421,list_pa,2021.1.4,59.47300966169726,
sounds/gauche.ogg,0.7,,4,0,4,0,0,43,43,11,,,,,545.0367874400014,None,,,,001,2021_May_07_1421,list_pa,2021.1.4,59.47300966169726,
sounds/droite.ogg,0.7,,4,0,4,0,0,44,44,38,,,,,546.5375996400013,545.8522927000013,,,,001,2021_May_07_1421,list_pa,2021.1.4,59.47300966169726,
sounds/droite.ogg,0.7,,4,0,4,0,0,45,45,49,,,,,548.0379333399957,547.352567199996,,,,001,2021_May_07_1421,list_pa,2021.1.4,59.47300966169726,
sounds/gauche.ogg,0.7,,4,0,4,0,0,46,46,14,,,,,549.5379763399957,None,,,,001,2021_May_07_1421,list_pa,2021.1.4,59.47300966169726,
sounds/gauche.ogg,0.7,,4,0,4,0,0,47,47,9,,,,,551.0385272399996,550.3529488999993,,,,001,2021_May_07_1421,list_pa,2021.1.4,59.47300966169726,
sounds/droite.ogg,0.7,,4,0,4,0,0,48,48,32,,,,,552.5386124400007,551.8532476999972,,,,001,2021_May_07_1421,list_pa,2021.1.4,59.47300966169726,
sounds/droite.ogg,0.7,,4,0,4,0,0,49,49,37,,,,,554.0392357399957,553.353634799998,,,,001,2021_May_07_1421,list_pa,2021.1.4,59.47300966169726,
,,30,4,0,4,0,,,,,0,0,0,0,,,554.8694525999963,None,,001,2021_May_07_1421,list_pa,2021.1.4,59.47300966169726,
,,29,4,0,4,0,,,,,0,1,1,1,,,555.8710223000016,None,,001,2021_May_07_1421,list_pa,2021.1.4,59.47300966169726,
,,28,4,0,4,0,,,,,0,2,2,2,,,556.8716260000001,None,,001,2021_May_07_1421,list_pa,2021.1.4,59.47300966169726,
,,27,4,0,4,0,,,,,0,3,3,3,,,557.8713267999992,None,,001,2021_May_07_1421,list_pa,2021.1.4,59.47300966169726,
,,26,4,0,4,0,,,,,0,4,4,4,,,558.8717667000019,None,,001,2021_May_07_1421,list_pa,2021.1.4,59.47300966169726,
,,25,4,0,4,0,,,,,0,5,5,5,,,559.8721126000019,None,,001,2021_May_07_1421,list_pa,2021.1.4,59.47300966169726,
,,24,4,0,4,0,,,,,0,6,6,6,,,560.8562542,None,,001,2021_May_07_1421,list_pa,2021.1.4,59.47300966169726,
,,23,4,0,4,0,,,,,0,7,7,7,,,561.8506454999952,None,,001,2021_May_07_1421,list_pa,2021.1.4,59.47300966169726,
,,22,4,0,4,0,,,,,0,8,8,8,,,562.8717866000006,None,,001,2021_May_07_1421,list_pa,2021.1.4,59.47300966169726,
,,21,4,0,4,0,,,,,0,9,9,9,,,563.8869106999991,None,,001,2021_May_07_1421,list_pa,2021.1.4,59.47300966169726,
,,20,4,0,4,0,,,,,0,10,10,10,,,None,None,,001,2021_May_07_1421,list_pa,2021.1.4,59.47300966169726,
,,19,4,0,4,0,,,,,0,11,11,11,,,None,None,,001,2021_May_07_1421,list_pa,2021.1.4,59.47300966169726,
,,18,4,0,4,0,,,,,0,12,12,12,,,None,None,,001,2021_May_07_1421,list_pa,2021.1.4,59.47300966169726,
,,17,4,0,4,0,,,,,0,13,13,13,,,None,None,,001,2021_May_07_1421,list_pa,2021.1.4,59.47300966169726,
,,16,4,0,4,0,,,,,0,14,14,14,,,None,None,,001,2021_May_07_1421,list_pa,2021.1.4,59.47300966169726,
,,15,4,0,4,0,,,,,0,15,15,15,,,None,None,,001,2021_May_07_1421,list_pa,2021.1.4,59.47300966169726,
,,14,4,0,4,0,,,,,0,16,16,16,,,None,None,,001,2021_May_07_1421,list_pa,2021.1.4,59.47300966169726,
,,13,4,0,4,0,,,,,0,17,17,17,,,None,None,,001,2021_May_07_1421,list_pa,2021.1.4,59.47300966169726,
,,12,4,0,4,0,,,,,0,18,18,18,,,None,None,,001,2021_May_07_1421,list_pa,2021.1.4,59.47300966169726,
,,11,4,0,4,0,,,,,0,19,19,19,,,None,None,,001,2021_May_07_1421,list_pa,2021.1.4,59.47300966169726,
,,10,4,0,4,0,,,,,0,20,20,20,,,None,None,,001,2021_May_07_1421,list_pa,2021.1.4,59.47300966169726,
,,9,4,0,4,0,,,,,0,21,21,21,,,None,None,,001,2021_May_07_1421,list_pa,2021.1.4,59.47300966169726,
,,8,4,0,4,0,,,,,0,22,22,22,,,None,None,,001,2021_May_07_1421,list_pa,2021.1.4,59.47300966169726,
,,7,4,0,4,0,,,,,0,23,23,23,,,None,None,,001,2021_May_07_1421,list_pa,2021.1.4,59.47300966169726,
,,6,4,0,4,0,,,,,0,24,24,24,,,None,None,,001,2021_May_07_1421,list_pa,2021.1.4,59.47300966169726,
,,5,4,0,4,0,,,,,0,25,25,25,,,None,None,,001,2021_May_07_1421,list_pa,2021.1.4,59.47300966169726,
,,4,4,0,4,0,,,,,0,26,26,26,,,None,None,,001,2021_May_07_1421,list_pa,2021.1.4,59.47300966169726,
,,3,4,0,4,0,,,,,0,27,27,27,,,None,None,,001,2021_May_07_1421,list_pa,2021.1.4,59.47300966169726,
,,2,4,0,4,0,,,,,0,28,28,28,,,None,None,,001,2021_May_07_1421,list_pa,2021.1.4,59.47300966169726,
,,1,4,0,4,0,,,,,0,29,29,29,,,None,None,,001,2021_May_07_1421,list_pa,2021.1.4,59.47300966169726,
,,0,4,0,4,0,,,,,0,30,30,30,,,None,None,,001,2021_May_07_1421,list_pa,2021.1.4,59.47300966169726,
,,,4,0,4,0,,,,,,,,,,,,,,001,2021_May_07_1421,list_pa,2021.1.4,59.47300966169726,
