word_stimuli,isi,countdown,trials.thisRepN,trials.thisTrialN,trials.thisN,trials.thisIndex,trial_loop.thisRepN,trial_loop.thisTrialN,trial_loop.thisN,trial_loop.thisIndex,trials_2.thisRepN,trials_2.thisTrialN,trials_2.thisN,trials_2.thisIndex,sound_exposure.started,sound_exposure.stopped,text.started,text.stopped,participant,session,date,expName,psychopyVersion,frameRate,
sounds/droite.ogg,0.7,,0,0,0,0,0,0,0,44,,,,,66.09303040998057,None,,,,001,2021_Apr_30_1327,list_pa,2021.1.4,60.09218141213368,
sounds/gauche.ogg,0.7,,0,0,0,0,0,1,1,8,,,,,67.59386510999175,66.90926029998809,,,,001,2021_Apr_30_1327,list_pa,2021.1.4,60.09218141213368,
sounds/gauche.ogg,0.7,,0,0,0,0,0,2,2,14,,,,,69.09457020997652,68.41079900000477,,,,001,2021_Apr_30_1327,list_pa,2021.1.4,60.09218141213368,
sounds/gauche.ogg,0.7,,0,0,0,0,0,3,3,13,,,,,70.59496040997911,69.9096832999785,,,,001,2021_Apr_30_1327,list_pa,2021.1.4,60.09218141213368,
sounds/droite.ogg,0.7,,0,0,0,0,0,4,4,42,,,,,72.09516040998861,71.41040779999457,,,,001,2021_Apr_30_1327,list_pa,2021.1.4,60.09218141213368,
sounds/droite.ogg,0.7,,0,0,0,0,0,5,5,37,,,,,73.59544911000413,None,,,,001,2021_Apr_30_1327,list_pa,2021.1.4,60.09218141213368,
sounds/droite.ogg,0.7,,0,0,0,0,0,6,6,34,,,,,75.09568910999806,74.41077990000485,,,,001,2021_Apr_30_1327,list_pa,2021.1.4,60.09218141213368,
sounds/gauche.ogg,0.7,,0,0,0,0,0,7,7,9,,,,,76.5963384099945,75.91130149998935,,,,001,2021_Apr_30_1327,list_pa,2021.1.4,60.09218141213368,
sounds/gauche.ogg,0.7,,0,0,0,0,0,8,8,24,,,,,78.09627740999568,None,,,,001,2021_Apr_30_1327,list_pa,2021.1.4,60.09218141213368,
sounds/droite.ogg,0.7,,0,0,0,0,0,9,9,29,,,,,79.59704460998765,78.91175259999,,,,001,2021_Apr_30_1327,list_pa,2021.1.4,60.09218141213368,
sounds/gauche.ogg,0.7,,0,0,0,0,0,10,10,19,,,,,81.09771050999407,80.41184369998518,,,,001,2021_Apr_30_1327,list_pa,2021.1.4,60.09218141213368,
sounds/gauche.ogg,0.7,,0,0,0,0,0,11,11,3,,,,,82.59720070998301,81.91248020000057,,,,001,2021_Apr_30_1327,list_pa,2021.1.4,60.09218141213368,
sounds/droite.ogg,0.7,,0,0,0,0,0,12,12,45,,,,,84.09773590998375,83.41263189999154,,,,001,2021_Apr_30_1327,list_pa,2021.1.4,60.09218141213368,
sounds/droite.ogg,0.7,,0,0,0,0,0,13,13,32,,,,,85.5978292099957,84.91308359999675,,,,001,2021_Apr_30_1327,list_pa,2021.1.4,60.09218141213368,
sounds/droite.ogg,0.7,,0,0,0,0,0,14,14,49,,,,,87.09840490998468,86.41316539997933,,,,001,2021_Apr_30_1327,list_pa,2021.1.4,60.09218141213368,
sounds/gauche.ogg,0.7,,0,0,0,0,0,15,15,18,,,,,88.5987350099953,87.91336099998443,,,,001,2021_Apr_30_1327,list_pa,2021.1.4,60.09218141213368,
sounds/droite.ogg,0.7,,0,0,0,0,0,16,16,25,,,,,90.09943790999242,None,,,,001,2021_Apr_30_1327,list_pa,2021.1.4,60.09218141213368,
sounds/gauche.ogg,0.7,,0,0,0,0,0,17,17,10,,,,,91.59940390999546,90.91398909999407,,,,001,2021_Apr_30_1327,list_pa,2021.1.4,60.09218141213368,
sounds/droite.ogg,0.7,,0,0,0,0,0,18,18,27,,,,,93.09960001000437,92.41504679998616,,,,001,2021_Apr_30_1327,list_pa,2021.1.4,60.09218141213368,
sounds/gauche.ogg,0.7,,0,0,0,0,0,19,19,1,,,,,94.59979871000397,None,,,,001,2021_Apr_30_1327,list_pa,2021.1.4,60.09218141213368,
sounds/droite.ogg,0.7,,0,0,0,0,0,20,20,26,,,,,96.1002946099965,None,,,,001,2021_Apr_30_1327,list_pa,2021.1.4,60.09218141213368,
sounds/droite.ogg,0.7,,0,0,0,0,0,21,21,48,,,,,97.60054520998384,96.91569319998962,,,,001,2021_Apr_30_1327,list_pa,2021.1.4,60.09218141213368,
sounds/droite.ogg,0.7,,0,0,0,0,0,22,22,33,,,,,99.10100720998017,98.4157612999843,,,,001,2021_Apr_30_1327,list_pa,2021.1.4,60.09218141213368,
sounds/droite.ogg,0.7,,0,0,0,0,0,23,23,31,,,,,100.60159740999225,99.91515459999209,,,,001,2021_Apr_30_1327,list_pa,2021.1.4,60.09218141213368,
sounds/gauche.ogg,0.7,,0,0,0,0,0,24,24,7,,,,,102.11813331000158,None,,,,001,2021_Apr_30_1327,list_pa,2021.1.4,60.09218141213368,
sounds/droite.ogg,0.7,,0,0,0,0,0,25,25,39,,,,,103.61836330997758,102.93340869998792,,,,001,2021_Apr_30_1327,list_pa,2021.1.4,60.09218141213368,
sounds/gauche.ogg,0.7,,0,0,0,0,0,26,26,15,,,,,105.1186476099887,104.43366089998744,,,,001,2021_Apr_30_1327,list_pa,2021.1.4,60.09218141213368,
sounds/gauche.ogg,0.7,,0,0,0,0,0,27,27,0,,,,,106.61904140998959,105.93403340000077,,,,001,2021_Apr_30_1327,list_pa,2021.1.4,60.09218141213368,
sounds/gauche.ogg,0.7,,0,0,0,0,0,28,28,5,,,,,108.11985020997818,107.43438719998812,,,,001,2021_Apr_30_1327,list_pa,2021.1.4,60.09218141213368,
sounds/droite.ogg,0.7,,0,0,0,0,0,29,29,47,,,,,109.61959470998264,None,,,,001,2021_Apr_30_1327,list_pa,2021.1.4,60.09218141213368,
sounds/gauche.ogg,0.7,,0,0,0,0,0,30,30,21,,,,,111.12030821000226,110.43532170000253,,,,001,2021_Apr_30_1327,list_pa,2021.1.4,60.09218141213368,
sounds/droite.ogg,0.7,,0,0,0,0,0,31,31,30,,,,,112.62015380999074,111.9356526999909,,,,001,2021_Apr_30_1327,list_pa,2021.1.4,60.09218141213368,
sounds/droite.ogg,0.7,,0,0,0,0,0,32,32,43,,,,,114.12089840998524,None,,,,001,2021_Apr_30_1327,list_pa,2021.1.4,60.09218141213368,
sounds/gauche.ogg,0.7,,0,0,0,0,0,33,33,6,,,,,115.62072520997609,114.93555520000518,,,,001,2021_Apr_30_1327,list_pa,2021.1.4,60.09218141213368,
sounds/gauche.ogg,0.7,,0,0,0,0,0,34,34,17,,,,,117.12129300999223,None,,,,001,2021_Apr_30_1327,list_pa,2021.1.4,60.09218141213368,
sounds/droite.ogg,0.7,,0,0,0,0,0,35,35,40,,,,,118.62133700997802,117.93564489998971,,,,001,2021_Apr_30_1327,list_pa,2021.1.4,60.09218141213368,
sounds/gauche.ogg,0.7,,0,0,0,0,0,36,36,20,,,,,120.12284040998784,119.43662279998534,,,,001,2021_Apr_30_1327,list_pa,2021.1.4,60.09218141213368,
sounds/gauche.ogg,0.7,,0,0,0,0,0,37,37,23,,,,,121.62201810998377,120.93680749999476,,,,001,2021_Apr_30_1327,list_pa,2021.1.4,60.09218141213368,
sounds/gauche.ogg,0.7,,0,0,0,0,0,38,38,2,,,,,123.12252360999119,122.43701649998548,,,,001,2021_Apr_30_1327,list_pa,2021.1.4,60.09218141213368,
sounds/gauche.ogg,0.7,,0,0,0,0,0,39,39,16,,,,,124.62281201000442,123.93709229998058,,,,001,2021_Apr_30_1327,list_pa,2021.1.4,60.09218141213368,
sounds/droite.ogg,0.7,,0,0,0,0,0,40,40,38,,,,,126.12302070999286,125.43776889998117,,,,001,2021_Apr_30_1327,list_pa,2021.1.4,60.09218141213368,
sounds/gauche.ogg,0.7,,0,0,0,0,0,41,41,22,,,,,127.62073570999783,None,,,,001,2021_Apr_30_1327,list_pa,2021.1.4,60.09218141213368,
sounds/droite.ogg,0.7,,0,0,0,0,0,42,42,35,,,,,129.1234829099907,128.43858829999226,,,,001,2021_Apr_30_1327,list_pa,2021.1.4,60.09218141213368,
sounds/droite.ogg,0.7,,0,0,0,0,0,43,43,28,,,,,130.6240136099863,129.93903209999553,,,,001,2021_Apr_30_1327,list_pa,2021.1.4,60.09218141213368,
sounds/droite.ogg,0.7,,0,0,0,0,0,44,44,36,,,,,132.1240630099841,131.4378533999843,,,,001,2021_Apr_30_1327,list_pa,2021.1.4,60.09218141213368,
sounds/gauche.ogg,0.7,,0,0,0,0,0,45,45,11,,,,,133.6239145099884,132.93972939997911,,,,001,2021_Apr_30_1327,list_pa,2021.1.4,60.09218141213368,
sounds/gauche.ogg,0.7,,0,0,0,0,0,46,46,12,,,,,135.12452550998424,134.4398155999952,,,,001,2021_Apr_30_1327,list_pa,2021.1.4,60.09218141213368,
sounds/gauche.ogg,0.7,,0,0,0,0,0,47,47,4,,,,,136.624854709988,135.94010879998677,,,,001,2021_Apr_30_1327,list_pa,2021.1.4,60.09218141213368,
sounds/droite.ogg,0.7,,0,0,0,0,0,48,48,46,,,,,138.12532750997926,137.44064849999268,,,,001,2021_Apr_30_1327,list_pa,2021.1.4,60.09218141213368,
sounds/droite.ogg,0.7,,0,0,0,0,0,49,49,41,,,,,139.62594740998466,138.9407658999844,,,,001,2021_Apr_30_1327,list_pa,2021.1.4,60.09218141213368,
,,30,0,0,0,0,,,,,0,0,0,0,,,140.49952620000113,None,,001,2021_Apr_30_1327,list_pa,2021.1.4,60.09218141213368,
,,29,0,0,0,0,,,,,0,1,1,1,,,141.45788810000522,None,,001,2021_Apr_30_1327,list_pa,2021.1.4,60.09218141213368,
,,28,0,0,0,0,,,,,0,2,2,2,,,142.45784190000268,None,,001,2021_Apr_30_1327,list_pa,2021.1.4,60.09218141213368,
,,27,0,0,0,0,,,,,0,3,3,3,,,143.45799850000185,None,,001,2021_Apr_30_1327,list_pa,2021.1.4,60.09218141213368,
,,26,0,0,0,0,,,,,0,4,4,4,,,144.45821769998292,None,,001,2021_Apr_30_1327,list_pa,2021.1.4,60.09218141213368,
,,25,0,0,0,0,,,,,0,5,5,5,,,145.45844809999107,None,,001,2021_Apr_30_1327,list_pa,2021.1.4,60.09218141213368,
,,24,0,0,0,0,,,,,0,6,6,6,,,146.45862960000522,None,,001,2021_Apr_30_1327,list_pa,2021.1.4,60.09218141213368,
,,23,0,0,0,0,,,,,0,7,7,7,,,147.45866229999228,None,,001,2021_Apr_30_1327,list_pa,2021.1.4,60.09218141213368,
,,22,0,0,0,0,,,,,0,8,8,8,,,148.45947420000448,None,,001,2021_Apr_30_1327,list_pa,2021.1.4,60.09218141213368,
,,21,0,0,0,0,,,,,0,9,9,9,,,149.45974120000028,None,,001,2021_Apr_30_1327,list_pa,2021.1.4,60.09218141213368,
,,20,0,0,0,0,,,,,0,10,10,10,,,150.45986149998498,None,,001,2021_Apr_30_1327,list_pa,2021.1.4,60.09218141213368,
,,19,0,0,0,0,,,,,0,11,11,11,,,151.45998029998736,None,,001,2021_Apr_30_1327,list_pa,2021.1.4,60.09218141213368,
,,18,0,0,0,0,,,,,0,12,12,12,,,152.44341179999174,None,,001,2021_Apr_30_1327,list_pa,2021.1.4,60.09218141213368,
,,17,0,0,0,0,,,,,0,13,13,13,,,153.44369949999964,None,,001,2021_Apr_30_1327,list_pa,2021.1.4,60.09218141213368,
,,16,0,0,0,0,,,,,0,14,14,14,,,154.44386810000287,None,,001,2021_Apr_30_1327,list_pa,2021.1.4,60.09218141213368,
,,15,0,0,0,0,,,,,0,15,15,15,,,155.4450242999883,None,,001,2021_Apr_30_1327,list_pa,2021.1.4,60.09218141213368,
,,14,0,0,0,0,,,,,0,16,16,16,,,156.44508010000573,None,,001,2021_Apr_30_1327,list_pa,2021.1.4,60.09218141213368,
,,13,0,0,0,0,,,,,0,17,17,17,,,157.44507359998534,None,,001,2021_Apr_30_1327,list_pa,2021.1.4,60.09218141213368,
,,12,0,0,0,0,,,,,0,18,18,18,,,158.44546079999418,None,,001,2021_Apr_30_1327,list_pa,2021.1.4,60.09218141213368,
,,11,0,0,0,0,,,,,0,19,19,19,,,159.44545629998902,None,,001,2021_Apr_30_1327,list_pa,2021.1.4,60.09218141213368,
,,10,0,0,0,0,,,,,0,20,20,20,,,160.4454834999924,None,,001,2021_Apr_30_1327,list_pa,2021.1.4,60.09218141213368,
,,9,0,0,0,0,,,,,0,21,21,21,,,161.44533620000584,None,,001,2021_Apr_30_1327,list_pa,2021.1.4,60.09218141213368,
,,8,0,0,0,0,,,,,0,22,22,22,,,162.44552300000214,None,,001,2021_Apr_30_1327,list_pa,2021.1.4,60.09218141213368,
,,7,0,0,0,0,,,,,0,23,23,23,,,163.44566830000258,None,,001,2021_Apr_30_1327,list_pa,2021.1.4,60.09218141213368,
,,6,0,0,0,0,,,,,0,24,24,24,,,164.4459098999796,None,,001,2021_Apr_30_1327,list_pa,2021.1.4,60.09218141213368,
,,5,0,0,0,0,,,,,0,25,25,25,,,165.4462040999788,None,,001,2021_Apr_30_1327,list_pa,2021.1.4,60.09218141213368,
,,4,0,0,0,0,,,,,0,26,26,26,,,166.4461575000023,None,,001,2021_Apr_30_1327,list_pa,2021.1.4,60.09218141213368,
,,3,0,0,0,0,,,,,0,27,27,27,,,167.44632369998726,None,,001,2021_Apr_30_1327,list_pa,2021.1.4,60.09218141213368,
,,2,0,0,0,0,,,,,0,28,28,28,,,168.44661660000565,None,,001,2021_Apr_30_1327,list_pa,2021.1.4,60.09218141213368,
,,1,0,0,0,0,,,,,0,29,29,29,,,169.4464469999948,None,,001,2021_Apr_30_1327,list_pa,2021.1.4,60.09218141213368,
,,0,0,0,0,0,,,,,0,30,30,30,,,170.4468329999945,None,,001,2021_Apr_30_1327,list_pa,2021.1.4,60.09218141213368,
,,,0,0,0,0,,,,,,,,,,,,,,001,2021_Apr_30_1327,list_pa,2021.1.4,60.09218141213368,
sounds/gauche.ogg,0.7,,1,0,1,0,0,0,0,18,,,,,172.1655816100014,None,,,,001,2021_Apr_30_1327,list_pa,2021.1.4,60.09218141213368,
sounds/droite.ogg,0.7,,1,0,1,0,0,1,1,35,,,,,173.6668457099935,172.99622020000243,,,,001,2021_Apr_30_1327,list_pa,2021.1.4,60.09218141213368,
sounds/gauche.ogg,0.7,,1,0,1,0,0,2,2,8,,,,,175.18322871000274,None,,,,001,2021_Apr_30_1327,list_pa,2021.1.4,60.09218141213368,
sounds/droite.ogg,0.7,,1,0,1,0,0,3,3,41,,,,,176.68312410999206,175.99786429997766,,,,001,2021_Apr_30_1327,list_pa,2021.1.4,60.09218141213368,
sounds/droite.ogg,0.7,,1,0,1,0,0,4,4,34,,,,,178.18330790999462,177.4982839000004,,,,001,2021_Apr_30_1327,list_pa,2021.1.4,60.09218141213368,
sounds/droite.ogg,0.7,,1,0,1,0,0,5,5,42,,,,,179.6839478099777,178.99866119999206,,,,001,2021_Apr_30_1327,list_pa,2021.1.4,60.09218141213368,
sounds/gauche.ogg,0.7,,1,0,1,0,0,6,6,12,,,,,181.18380830999232,180.49939260000247,,,,001,2021_Apr_30_1327,list_pa,2021.1.4,60.09218141213368,
sounds/droite.ogg,0.7,,1,0,1,0,0,7,7,47,,,,,182.68426851000405,None,,,,001,2021_Apr_30_1327,list_pa,2021.1.4,60.09218141213368,
sounds/gauche.ogg,0.7,,1,0,1,0,0,8,8,11,,,,,184.18443510999205,183.49971559998812,,,,001,2021_Apr_30_1327,list_pa,2021.1.4,60.09218141213368,
sounds/gauche.ogg,0.7,,1,0,1,0,0,9,9,6,,,,,185.68528550997726,185.0003034999827,,,,001,2021_Apr_30_1327,list_pa,2021.1.4,60.09218141213368,
sounds/droite.ogg,0.7,,1,0,1,0,0,10,10,32,,,,,187.18491860997747,None,,,,001,2021_Apr_30_1327,list_pa,2021.1.4,60.09218141213368,
sounds/gauche.ogg,0.7,,1,0,1,0,0,11,11,15,,,,,188.68558930999134,188.00063909997698,,,,001,2021_Apr_30_1327,list_pa,2021.1.4,60.09218141213368,
sounds/gauche.ogg,0.7,,1,0,1,0,0,12,12,22,,,,,190.1855762099789,189.5007947999984,,,,001,2021_Apr_30_1327,list_pa,2021.1.4,60.09218141213368,
sounds/gauche.ogg,0.7,,1,0,1,0,0,13,13,16,,,,,191.68631790998043,191.00123819999862,,,,001,2021_Apr_30_1327,list_pa,2021.1.4,60.09218141213368,
sounds/gauche.ogg,0.7,,1,0,1,0,0,14,14,20,,,,,193.1865335099923,192.50140939999255,,,,001,2021_Apr_30_1327,list_pa,2021.1.4,60.09218141213368,
sounds/droite.ogg,0.7,,1,0,1,0,0,15,15,25,,,,,194.68673080998124,194.00210359998164,,,,001,2021_Apr_30_1327,list_pa,2021.1.4,60.09218141213368,
sounds/droite.ogg,0.7,,1,0,1,0,0,16,16,48,,,,,196.18669620997971,195.50205069998628,,,,001,2021_Apr_30_1327,list_pa,2021.1.4,60.09218141213368,
sounds/gauche.ogg,0.7,,1,0,1,0,0,17,17,3,,,,,197.68748040998472,197.0019776999834,,,,001,2021_Apr_30_1327,list_pa,2021.1.4,60.09218141213368,
sounds/gauche.ogg,0.7,,1,0,1,0,0,18,18,19,,,,,199.1875684099854,198.50277859999915,,,,001,2021_Apr_30_1327,list_pa,2021.1.4,60.09218141213368,
sounds/gauche.ogg,0.7,,1,0,1,0,0,19,19,14,,,,,200.68797440999188,200.00309889999335,,,,001,2021_Apr_30_1327,list_pa,2021.1.4,60.09218141213368,
sounds/gauche.ogg,0.7,,1,0,1,0,0,20,20,0,,,,,202.18887540998404,201.5033442999993,,,,001,2021_Apr_30_1327,list_pa,2021.1.4,60.09218141213368,
sounds/gauche.ogg,0.7,,1,0,1,0,0,21,21,21,,,,,203.6883547099773,None,,,,001,2021_Apr_30_1327,list_pa,2021.1.4,60.09218141213368,
sounds/gauche.ogg,0.7,,1,0,1,0,0,22,22,23,,,,,205.1890988099971,204.5040813999949,,,,001,2021_Apr_30_1327,list_pa,2021.1.4,60.09218141213368,
sounds/droite.ogg,0.7,,1,0,1,0,0,23,23,33,,,,,206.68915380997933,206.00470319998567,,,,001,2021_Apr_30_1327,list_pa,2021.1.4,60.09218141213368,
sounds/gauche.ogg,0.7,,1,0,1,0,0,24,24,2,,,,,208.1900563099829,207.50489919999382,,,,001,2021_Apr_30_1327,list_pa,2021.1.4,60.09218141213368,
sounds/gauche.ogg,0.7,,1,0,1,0,0,25,25,5,,,,,209.68973830997712,209.00548469999922,,,,001,2021_Apr_30_1327,list_pa,2021.1.4,60.09218141213368,
sounds/droite.ogg,0.7,,1,0,1,0,0,26,26,40,,,,,211.19087940999307,210.50571209998452,,,,001,2021_Apr_30_1327,list_pa,2021.1.4,60.09218141213368,
sounds/gauche.ogg,0.7,,1,0,1,0,0,27,27,4,,,,,212.69045310997754,212.00553659998695,,,,001,2021_Apr_30_1327,list_pa,2021.1.4,60.09218141213368,
sounds/droite.ogg,0.7,,1,0,1,0,0,28,28,43,,,,,214.1907220099878,213.50560360000236,,,,001,2021_Apr_30_1327,list_pa,2021.1.4,60.09218141213368,
sounds/gauche.ogg,0.7,,1,0,1,0,0,29,29,9,,,,,215.69110870999285,None,,,,001,2021_Apr_30_1327,list_pa,2021.1.4,60.09218141213368,
sounds/gauche.ogg,0.7,,1,0,1,0,0,30,30,1,,,,,217.19163770997548,216.50612340000225,,,,001,2021_Apr_30_1327,list_pa,2021.1.4,60.09218141213368,
sounds/gauche.ogg,0.7,,1,0,1,0,0,31,31,17,,,,,218.69217930999585,218.00689849999617,,,,001,2021_Apr_30_1327,list_pa,2021.1.4,60.09218141213368,
sounds/droite.ogg,0.7,,1,0,1,0,0,32,32,30,,,,,220.19207010997926,219.50695589999668,,,,001,2021_Apr_30_1327,list_pa,2021.1.4,60.09218141213368,
sounds/droite.ogg,0.7,,1,0,1,0,0,33,33,46,,,,,221.6925693099969,None,,,,001,2021_Apr_30_1327,list_pa,2021.1.4,60.09218141213368,
sounds/droite.ogg,0.7,,1,0,1,0,0,34,34,27,,,,,223.19321470999276,222.5073035999958,,,,001,2021_Apr_30_1327,list_pa,2021.1.4,60.09218141213368,
sounds/gauche.ogg,0.7,,1,0,1,0,0,35,35,24,,,,,224.69324620999978,224.00791279997793,,,,001,2021_Apr_30_1327,list_pa,2021.1.4,60.09218141213368,
sounds/droite.ogg,0.7,,1,0,1,0,0,36,36,49,,,,,226.20974820998381,225.5248966999934,,,,001,2021_Apr_30_1327,list_pa,2021.1.4,60.09218141213368,
sounds/droite.ogg,0.7,,1,0,1,0,0,37,37,38,,,,,227.7100957099814,227.0250552999787,,,,001,2021_Apr_30_1327,list_pa,2021.1.4,60.09218141213368,
sounds/droite.ogg,0.7,,1,0,1,0,0,38,38,39,,,,,229.21099980999716,None,,,,001,2021_Apr_30_1327,list_pa,2021.1.4,60.09218141213368,
sounds/droite.ogg,0.7,,1,0,1,0,0,39,39,26,,,,,230.7104838099971,230.0259931999899,,,,001,2021_Apr_30_1327,list_pa,2021.1.4,60.09218141213368,
sounds/gauche.ogg,0.7,,1,0,1,0,0,40,40,7,,,,,232.21074890997843,231.52582869998878,,,,001,2021_Apr_30_1327,list_pa,2021.1.4,60.09218141213368,
sounds/droite.ogg,0.7,,1,0,1,0,0,41,41,36,,,,,233.71209090998164,233.02488670000457,,,,001,2021_Apr_30_1327,list_pa,2021.1.4,60.09218141213368,
sounds/droite.ogg,0.7,,1,0,1,0,0,42,42,29,,,,,235.2117953100009,234.5268179999839,,,,001,2021_Apr_30_1327,list_pa,2021.1.4,60.09218141213368,
sounds/droite.ogg,0.7,,1,0,1,0,0,43,43,31,,,,,236.7119764099829,None,,,,001,2021_Apr_30_1327,list_pa,2021.1.4,60.09218141213368,
sounds/gauche.ogg,0.7,,1,0,1,0,0,44,44,10,,,,,238.2125104100036,237.52710069998284,,,,001,2021_Apr_30_1327,list_pa,2021.1.4,60.09218141213368,
sounds/droite.ogg,0.7,,1,0,1,0,0,45,45,44,,,,,239.71292920999113,239.02732549997745,,,,001,2021_Apr_30_1327,list_pa,2021.1.4,60.09218141213368,
sounds/droite.ogg,0.7,,1,0,1,0,0,46,46,37,,,,,241.21324850997772,240.52756509999745,,,,001,2021_Apr_30_1327,list_pa,2021.1.4,60.09218141213368,
sounds/gauche.ogg,0.7,,1,0,1,0,0,47,47,13,,,,,242.73083001000342,242.04491709999274,,,,001,2021_Apr_30_1327,list_pa,2021.1.4,60.09218141213368,
sounds/droite.ogg,0.7,,1,0,1,0,0,48,48,45,,,,,244.2308016099909,243.54590669999016,,,,001,2021_Apr_30_1327,list_pa,2021.1.4,60.09218141213368,
sounds/droite.ogg,0.7,,1,0,1,0,0,49,49,28,,,,,245.74678900998552,None,,,,001,2021_Apr_30_1327,list_pa,2021.1.4,60.09218141213368,
,,30,1,0,1,0,,,,,0,0,0,0,,,246.5780636999989,None,,001,2021_Apr_30_1327,list_pa,2021.1.4,60.09218141213368,
,,29,1,0,1,0,,,,,0,1,1,1,,,247.57927819999168,None,,001,2021_Apr_30_1327,list_pa,2021.1.4,60.09218141213368,
,,28,1,0,1,0,,,,,0,2,2,2,,,248.57958609997877,None,,001,2021_Apr_30_1327,list_pa,2021.1.4,60.09218141213368,
,,27,1,0,1,0,,,,,0,3,3,3,,,249.5797047999804,None,,001,2021_Apr_30_1327,list_pa,2021.1.4,60.09218141213368,
,,26,1,0,1,0,,,,,0,4,4,4,,,250.58022599999094,None,,001,2021_Apr_30_1327,list_pa,2021.1.4,60.09218141213368,
,,25,1,0,1,0,,,,,0,5,5,5,,,251.5798651999794,None,,001,2021_Apr_30_1327,list_pa,2021.1.4,60.09218141213368,
,,24,1,0,1,0,,,,,0,6,6,6,,,252.57944909998332,None,,001,2021_Apr_30_1327,list_pa,2021.1.4,60.09218141213368,
,,23,1,0,1,0,,,,,0,7,7,7,,,253.56349879998015,None,,001,2021_Apr_30_1327,list_pa,2021.1.4,60.09218141213368,
,,22,1,0,1,0,,,,,0,8,8,8,,,254.56327419998706,None,,001,2021_Apr_30_1327,list_pa,2021.1.4,60.09218141213368,
,,21,1,0,1,0,,,,,0,9,9,9,,,255.5810581999831,None,,001,2021_Apr_30_1327,list_pa,2021.1.4,60.09218141213368,
,,20,1,0,1,0,,,,,0,10,10,10,,,256.5812161999929,None,,001,2021_Apr_30_1327,list_pa,2021.1.4,60.09218141213368,
,,19,1,0,1,0,,,,,0,11,11,11,,,257.58135839999886,None,,001,2021_Apr_30_1327,list_pa,2021.1.4,60.09218141213368,
,,18,1,0,1,0,,,,,0,12,12,12,,,258.5819305999903,None,,001,2021_Apr_30_1327,list_pa,2021.1.4,60.09218141213368,
,,17,1,0,1,0,,,,,0,13,13,13,,,259.5818289000017,None,,001,2021_Apr_30_1327,list_pa,2021.1.4,60.09218141213368,
,,16,1,0,1,0,,,,,0,14,14,14,,,260.5819202999992,None,,001,2021_Apr_30_1327,list_pa,2021.1.4,60.09218141213368,
,,15,1,0,1,0,,,,,0,15,15,15,,,261.5821704999835,None,,001,2021_Apr_30_1327,list_pa,2021.1.4,60.09218141213368,
,,14,1,0,1,0,,,,,0,16,16,16,,,262.56593349998,None,,001,2021_Apr_30_1327,list_pa,2021.1.4,60.09218141213368,
,,13,1,0,1,0,,,,,0,17,17,17,,,263.565910299978,None,,001,2021_Apr_30_1327,list_pa,2021.1.4,60.09218141213368,
,,12,1,0,1,0,,,,,0,18,18,18,,,264.5659977000032,None,,001,2021_Apr_30_1327,list_pa,2021.1.4,60.09218141213368,
,,11,1,0,1,0,,,,,0,19,19,19,,,265.56609279999975,None,,001,2021_Apr_30_1327,list_pa,2021.1.4,60.09218141213368,
,,10,1,0,1,0,,,,,0,20,20,20,,,266.56626069999766,None,,001,2021_Apr_30_1327,list_pa,2021.1.4,60.09218141213368,
,,9,1,0,1,0,,,,,0,21,21,21,,,267.5664605999773,None,,001,2021_Apr_30_1327,list_pa,2021.1.4,60.09218141213368,
,,8,1,0,1,0,,,,,0,22,22,22,,,268.56660689998535,None,,001,2021_Apr_30_1327,list_pa,2021.1.4,60.09218141213368,
,,7,1,0,1,0,,,,,0,23,23,23,,,269.56650059999083,None,,001,2021_Apr_30_1327,list_pa,2021.1.4,60.09218141213368,
,,6,1,0,1,0,,,,,0,24,24,24,,,270.56692099999054,None,,001,2021_Apr_30_1327,list_pa,2021.1.4,60.09218141213368,
,,5,1,0,1,0,,,,,0,25,25,25,,,271.5671441000013,None,,001,2021_Apr_30_1327,list_pa,2021.1.4,60.09218141213368,
,,4,1,0,1,0,,,,,0,26,26,26,,,272.56779129998176,None,,001,2021_Apr_30_1327,list_pa,2021.1.4,60.09218141213368,
,,3,1,0,1,0,,,,,0,27,27,27,,,273.5681523999956,None,,001,2021_Apr_30_1327,list_pa,2021.1.4,60.09218141213368,
,,2,1,0,1,0,,,,,0,28,28,28,,,274.5683116999862,None,,001,2021_Apr_30_1327,list_pa,2021.1.4,60.09218141213368,
,,1,1,0,1,0,,,,,0,29,29,29,,,275.56827049999265,None,,001,2021_Apr_30_1327,list_pa,2021.1.4,60.09218141213368,
,,0,1,0,1,0,,,,,0,30,30,30,,,276.5685693999985,None,,001,2021_Apr_30_1327,list_pa,2021.1.4,60.09218141213368,
,,,1,0,1,0,,,,,,,,,,,,,,001,2021_Apr_30_1327,list_pa,2021.1.4,60.09218141213368,
sounds/gauche.ogg,0.7,,2,0,2,0,0,0,0,22,,,,,278.2873474099964,None,,,,001,2021_Apr_30_1327,list_pa,2021.1.4,60.09218141213368,
sounds/droite.ogg,0.7,,2,0,2,0,0,1,1,48,,,,,279.78733020998186,279.10230699999374,,,,001,2021_Apr_30_1327,list_pa,2021.1.4,60.09218141213368,
sounds/gauche.ogg,0.7,,2,0,2,0,0,2,2,1,,,,,281.2878396099899,280.60152490000473,,,,001,2021_Apr_30_1327,list_pa,2021.1.4,60.09218141213368,
sounds/gauche.ogg,0.7,,2,0,2,0,0,3,3,24,,,,,282.7877330099931,282.10295979998773,,,,001,2021_Apr_30_1327,list_pa,2021.1.4,60.09218141213368,
sounds/gauche.ogg,0.7,,2,0,2,0,0,4,4,18,,,,,284.286286909983,283.6029623999784,,,,001,2021_Apr_30_1327,list_pa,2021.1.4,60.09218141213368,
sounds/droite.ogg,0.7,,2,0,2,0,0,5,5,45,,,,,285.78817940998704,285.1037419999775,,,,001,2021_Apr_30_1327,list_pa,2021.1.4,60.09218141213368,
sounds/droite.ogg,0.7,,2,0,2,0,0,6,6,34,,,,,287.28885080997713,286.60484459999134,,,,001,2021_Apr_30_1327,list_pa,2021.1.4,60.09218141213368,
sounds/gauche.ogg,0.7,,2,0,2,0,0,7,7,21,,,,,288.7892333099793,288.1038484000019,,,,001,2021_Apr_30_1327,list_pa,2021.1.4,60.09218141213368,
sounds/gauche.ogg,0.7,,2,0,2,0,0,8,8,5,,,,,290.28946890999794,289.6052282000019,,,,001,2021_Apr_30_1327,list_pa,2021.1.4,60.09218141213368,
sounds/gauche.ogg,0.7,,2,0,2,0,0,9,9,9,,,,,291.79147090999174,291.10578789998544,,,,001,2021_Apr_30_1327,list_pa,2021.1.4,60.09218141213368,
sounds/droite.ogg,0.7,,2,0,2,0,0,10,10,49,,,,,293.30692410999325,None,,,,001,2021_Apr_30_1327,list_pa,2021.1.4,60.09218141213368,
sounds/droite.ogg,0.7,,2,0,2,0,0,11,11,47,,,,,294.80698100998995,294.1225004000007,,,,001,2021_Apr_30_1327,list_pa,2021.1.4,60.09218141213368,
sounds/droite.ogg,0.7,,2,0,2,0,0,12,12,41,,,,,296.30790391000335,295.6227338000026,,,,001,2021_Apr_30_1327,list_pa,2021.1.4,60.09218141213368,
sounds/gauche.ogg,0.7,,2,0,2,0,0,13,13,2,,,,,297.80814940998096,297.1229215999774,,,,001,2021_Apr_30_1327,list_pa,2021.1.4,60.09218141213368,
sounds/droite.ogg,0.7,,2,0,2,0,0,14,14,44,,,,,299.3079620099801,298.62287649998325,,,,001,2021_Apr_30_1327,list_pa,2021.1.4,60.09218141213368,
sounds/gauche.ogg,0.7,,2,0,2,0,0,15,15,12,,,,,300.80884750999974,300.1238256999932,,,,001,2021_Apr_30_1327,list_pa,2021.1.4,60.09218141213368,
sounds/gauche.ogg,0.7,,2,0,2,0,0,16,16,7,,,,,302.3082996099896,301.62383949998184,,,,001,2021_Apr_30_1327,list_pa,2021.1.4,60.09218141213368,
sounds/droite.ogg,0.7,,2,0,2,0,0,17,17,29,,,,,303.8095811099978,303.1243420999963,,,,001,2021_Apr_30_1327,list_pa,2021.1.4,60.09218141213368,
sounds/droite.ogg,0.7,,2,0,2,0,0,18,18,40,,,,,305.30976850999866,304.62428649998037,,,,001,2021_Apr_30_1327,list_pa,2021.1.4,60.09218141213368,
sounds/droite.ogg,0.7,,2,0,2,0,0,19,19,27,,,,,306.8096424099989,306.1251370999962,,,,001,2021_Apr_30_1327,list_pa,2021.1.4,60.09218141213368,
sounds/droite.ogg,0.7,,2,0,2,0,0,20,20,37,,,,,308.3104276099824,None,,,,001,2021_Apr_30_1327,list_pa,2021.1.4,60.09218141213368,
sounds/gauche.ogg,0.7,,2,0,2,0,0,21,21,4,,,,,309.80984430999376,309.1254273999948,,,,001,2021_Apr_30_1327,list_pa,2021.1.4,60.09218141213368,
sounds/droite.ogg,0.7,,2,0,2,0,0,22,22,35,,,,,311.31144150999023,None,,,,001,2021_Apr_30_1327,list_pa,2021.1.4,60.09218141213368,
sounds/droite.ogg,0.7,,2,0,2,0,0,23,23,43,,,,,312.8107762099884,312.1250377999968,,,,001,2021_Apr_30_1327,list_pa,2021.1.4,60.09218141213368,
sounds/droite.ogg,0.7,,2,0,2,0,0,24,24,46,,,,,314.3109697099775,313.62592140000197,,,,001,2021_Apr_30_1327,list_pa,2021.1.4,60.09218141213368,
sounds/droite.ogg,0.7,,2,0,2,0,0,25,25,30,,,,,315.8114302099915,315.12621479999507,,,,001,2021_Apr_30_1327,list_pa,2021.1.4,60.09218141213368,
sounds/gauche.ogg,0.7,,2,0,2,0,0,26,26,14,,,,,317.3121960100019,316.62597319998895,,,,001,2021_Apr_30_1327,list_pa,2021.1.4,60.09218141213368,
sounds/gauche.ogg,0.7,,2,0,2,0,0,27,27,17,,,,,318.81228781000243,318.12656799997785,,,,001,2021_Apr_30_1327,list_pa,2021.1.4,60.09218141213368,
sounds/gauche.ogg,0.7,,2,0,2,0,0,28,28,19,,,,,320.3123662099882,319.62704639998265,,,,001,2021_Apr_30_1327,list_pa,2021.1.4,60.09218141213368,
sounds/droite.ogg,0.7,,2,0,2,0,0,29,29,32,,,,,321.81296480997696,321.12724509998225,,,,001,2021_Apr_30_1327,list_pa,2021.1.4,60.09218141213368,
sounds/droite.ogg,0.7,,2,0,2,0,0,30,30,42,,,,,323.3129062099964,322.62759829999413,,,,001,2021_Apr_30_1327,list_pa,2021.1.4,60.09218141213368,
sounds/droite.ogg,0.7,,2,0,2,0,0,31,31,31,,,,,324.8129156099807,324.12819379998837,,,,001,2021_Apr_30_1327,list_pa,2021.1.4,60.09218141213368,
sounds/droite.ogg,0.7,,2,0,2,0,0,32,32,26,,,,,326.3137438100006,None,,,,001,2021_Apr_30_1327,list_pa,2021.1.4,60.09218141213368,
sounds/gauche.ogg,0.7,,2,0,2,0,0,33,33,20,,,,,327.81392940998774,327.12978759998805,,,,001,2021_Apr_30_1327,list_pa,2021.1.4,60.09218141213368,
sounds/gauche.ogg,0.7,,2,0,2,0,0,34,34,3,,,,,329.3145082100003,328.62934389998554,,,,001,2021_Apr_30_1327,list_pa,2021.1.4,60.09218141213368,
sounds/droite.ogg,0.7,,2,0,2,0,0,35,35,39,,,,,330.8134157099761,None,,,,001,2021_Apr_30_1327,list_pa,2021.1.4,60.09218141213368,
sounds/gauche.ogg,0.7,,2,0,2,0,0,36,36,10,,,,,332.3144278099993,331.6293347000028,,,,001,2021_Apr_30_1327,list_pa,2021.1.4,60.09218141213368,
sounds/gauche.ogg,0.7,,2,0,2,0,0,37,37,13,,,,,333.8147807099798,333.13025819999166,,,,001,2021_Apr_30_1327,list_pa,2021.1.4,60.09218141213368,
sounds/droite.ogg,0.7,,2,0,2,0,0,38,38,25,,,,,335.3150392099982,334.630127899989,,,,001,2021_Apr_30_1327,list_pa,2021.1.4,60.09218141213368,
sounds/droite.ogg,0.7,,2,0,2,0,0,39,39,38,,,,,336.81562760999657,336.1305780999828,,,,001,2021_Apr_30_1327,list_pa,2021.1.4,60.09218141213368,
sounds/droite.ogg,0.7,,2,0,2,0,0,40,40,28,,,,,338.31567401000063,337.6305853999802,,,,001,2021_Apr_30_1327,list_pa,2021.1.4,60.09218141213368,
sounds/gauche.ogg,0.7,,2,0,2,0,0,41,41,15,,,,,339.81678780998334,339.13148609999917,,,,001,2021_Apr_30_1327,list_pa,2021.1.4,60.09218141213368,
sounds/gauche.ogg,0.7,,2,0,2,0,0,42,42,16,,,,,341.31637920998617,340.6314710000006,,,,001,2021_Apr_30_1327,list_pa,2021.1.4,60.09218141213368,
sounds/droite.ogg,0.7,,2,0,2,0,0,43,43,36,,,,,342.8168415099848,342.1325877000054,,,,001,2021_Apr_30_1327,list_pa,2021.1.4,60.09218141213368,
sounds/gauche.ogg,0.7,,2,0,2,0,0,44,44,8,,,,,344.31708270998786,343.6324060999905,,,,001,2021_Apr_30_1327,list_pa,2021.1.4,60.09218141213368,
sounds/gauche.ogg,0.7,,2,0,2,0,0,45,45,23,,,,,345.817450709996,345.13270369998645,,,,001,2021_Apr_30_1327,list_pa,2021.1.4,60.09218141213368,
sounds/gauche.ogg,0.7,,2,0,2,0,0,46,46,0,,,,,347.3178459099785,None,,,,001,2021_Apr_30_1327,list_pa,2021.1.4,60.09218141213368,
sounds/gauche.ogg,0.7,,2,0,2,0,0,47,47,11,,,,,348.81857320998677,348.1330450999958,,,,001,2021_Apr_30_1327,list_pa,2021.1.4,60.09218141213368,
sounds/droite.ogg,0.7,,2,0,2,0,0,48,48,33,,,,,350.31893160998004,349.6337685000035,,,,001,2021_Apr_30_1327,list_pa,2021.1.4,60.09218141213368,
sounds/gauche.ogg,0.7,,2,0,2,0,0,49,49,6,,,,,351.8184857099899,351.133763299993,,,,001,2021_Apr_30_1327,list_pa,2021.1.4,60.09218141213368,
,,30,2,0,2,0,,,,,0,0,0,0,,,352.6495760999969,None,,001,2021_Apr_30_1327,list_pa,2021.1.4,60.09218141213368,
,,29,2,0,2,0,,,,,0,1,1,1,,,353.63344370000414,None,,001,2021_Apr_30_1327,list_pa,2021.1.4,60.09218141213368,
,,28,2,0,2,0,,,,,0,2,2,2,,,354.65074680000544,None,,001,2021_Apr_30_1327,list_pa,2021.1.4,60.09218141213368,
,,27,2,0,2,0,,,,,0,3,3,3,,,355.6515804999799,None,,001,2021_Apr_30_1327,list_pa,2021.1.4,60.09218141213368,
,,26,2,0,2,0,,,,,0,4,4,4,,,356.6340854000009,None,,001,2021_Apr_30_1327,list_pa,2021.1.4,60.09218141213368,
,,25,2,0,2,0,,,,,0,5,5,5,,,357.6525873999926,None,,001,2021_Apr_30_1327,list_pa,2021.1.4,60.09218141213368,
,,24,2,0,2,0,,,,,0,6,6,6,,,358.65167789999396,None,,001,2021_Apr_30_1327,list_pa,2021.1.4,60.09218141213368,
,,23,2,0,2,0,,,,,0,7,7,7,,,359.6520564999955,None,,001,2021_Apr_30_1327,list_pa,2021.1.4,60.09218141213368,
,,22,2,0,2,0,,,,,0,8,8,8,,,360.6526756999956,None,,001,2021_Apr_30_1327,list_pa,2021.1.4,60.09218141213368,
,,21,2,0,2,0,,,,,0,9,9,9,,,361.65275079998537,None,,001,2021_Apr_30_1327,list_pa,2021.1.4,60.09218141213368,
,,20,2,0,2,0,,,,,0,10,10,10,,,362.6358540999936,None,,001,2021_Apr_30_1327,list_pa,2021.1.4,60.09218141213368,
,,19,2,0,2,0,,,,,0,11,11,11,,,363.6360750999884,None,,001,2021_Apr_30_1327,list_pa,2021.1.4,60.09218141213368,
,,18,2,0,2,0,,,,,0,12,12,12,,,364.63546329998644,None,,001,2021_Apr_30_1327,list_pa,2021.1.4,60.09218141213368,
,,17,2,0,2,0,,,,,0,13,13,13,,,365.6376814999967,None,,001,2021_Apr_30_1327,list_pa,2021.1.4,60.09218141213368,
,,16,2,0,2,0,,,,,0,14,14,14,,,366.65392929999507,None,,001,2021_Apr_30_1327,list_pa,2021.1.4,60.09218141213368,
,,15,2,0,2,0,,,,,0,15,15,15,,,367.6368387999828,None,,001,2021_Apr_30_1327,list_pa,2021.1.4,60.09218141213368,
,,14,2,0,2,0,,,,,0,16,16,16,,,368.6375212999992,None,,001,2021_Apr_30_1327,list_pa,2021.1.4,60.09218141213368,
,,13,2,0,2,0,,,,,0,17,17,17,,,369.6369683999801,None,,001,2021_Apr_30_1327,list_pa,2021.1.4,60.09218141213368,
,,12,2,0,2,0,,,,,0,18,18,18,,,370.63719439998385,None,,001,2021_Apr_30_1327,list_pa,2021.1.4,60.09218141213368,
,,11,2,0,2,0,,,,,0,19,19,19,,,371.63754860000336,None,,001,2021_Apr_30_1327,list_pa,2021.1.4,60.09218141213368,
,,10,2,0,2,0,,,,,0,20,20,20,,,372.63799909999943,None,,001,2021_Apr_30_1327,list_pa,2021.1.4,60.09218141213368,
,,9,2,0,2,0,,,,,0,21,21,21,,,373.6386695999827,None,,001,2021_Apr_30_1327,list_pa,2021.1.4,60.09218141213368,
,,8,2,0,2,0,,,,,0,22,22,22,,,374.63928669999586,None,,001,2021_Apr_30_1327,list_pa,2021.1.4,60.09218141213368,
,,7,2,0,2,0,,,,,0,23,23,23,,,375.63880210000207,None,,001,2021_Apr_30_1327,list_pa,2021.1.4,60.09218141213368,
,,6,2,0,2,0,,,,,0,24,24,24,,,376.63917079998646,None,,001,2021_Apr_30_1327,list_pa,2021.1.4,60.09218141213368,
,,5,2,0,2,0,,,,,0,25,25,25,,,377.6390969000058,None,,001,2021_Apr_30_1327,list_pa,2021.1.4,60.09218141213368,
,,4,2,0,2,0,,,,,0,26,26,26,,,378.63934359999257,None,,001,2021_Apr_30_1327,list_pa,2021.1.4,60.09218141213368,
,,3,2,0,2,0,,,,,0,27,27,27,,,379.63972169999033,None,,001,2021_Apr_30_1327,list_pa,2021.1.4,60.09218141213368,
,,2,2,0,2,0,,,,,0,28,28,28,,,380.6398774999834,None,,001,2021_Apr_30_1327,list_pa,2021.1.4,60.09218141213368,
,,1,2,0,2,0,,,,,0,29,29,29,,,381.63961969999946,None,,001,2021_Apr_30_1327,list_pa,2021.1.4,60.09218141213368,
,,0,2,0,2,0,,,,,0,30,30,30,,,382.63986939997994,None,,001,2021_Apr_30_1327,list_pa,2021.1.4,60.09218141213368,
,,,2,0,2,0,,,,,,,,,,,,,,001,2021_Apr_30_1327,list_pa,2021.1.4,60.09218141213368,
sounds/gauche.ogg,0.7,,3,0,3,0,0,0,0,2,,,,,384.3422241099819,None,,,,001,2021_Apr_30_1327,list_pa,2021.1.4,60.09218141213368,
sounds/droite.ogg,0.7,,3,0,3,0,0,1,1,44,,,,,385.8422186099982,None,,,,001,2021_Apr_30_1327,list_pa,2021.1.4,60.09218141213368,
sounds/gauche.ogg,0.7,,3,0,3,0,0,2,2,4,,,,,387.3428021099884,386.65729800000554,,,,001,2021_Apr_30_1327,list_pa,2021.1.4,60.09218141213368,
sounds/gauche.ogg,0.7,,3,0,3,0,0,3,3,0,,,,,388.8412999099877,388.1580346999981,,,,001,2021_Apr_30_1327,list_pa,2021.1.4,60.09218141213368,
sounds/droite.ogg,0.7,,3,0,3,0,0,4,4,32,,,,,390.3430597099999,None,,,,001,2021_Apr_30_1327,list_pa,2021.1.4,60.09218141213368,
sounds/gauche.ogg,0.7,,3,0,3,0,0,5,5,8,,,,,391.84336280997957,391.15849869998056,,,,001,2021_Apr_30_1327,list_pa,2021.1.4,60.09218141213368,
sounds/gauche.ogg,0.7,,3,0,3,0,0,6,6,11,,,,,393.34344880999413,392.6591375999851,,,,001,2021_Apr_30_1327,list_pa,2021.1.4,60.09218141213368,
sounds/droite.ogg,0.7,,3,0,3,0,0,7,7,49,,,,,394.8438158099947,394.1590715999773,,,,001,2021_Apr_30_1327,list_pa,2021.1.4,60.09218141213368,
sounds/droite.ogg,0.7,,3,0,3,0,0,8,8,29,,,,,396.3441560099949,395.65939570000046,,,,001,2021_Apr_30_1327,list_pa,2021.1.4,60.09218141213368,
sounds/droite.ogg,0.7,,3,0,3,0,0,9,9,39,,,,,397.8444489099842,397.1596664999961,,,,001,2021_Apr_30_1327,list_pa,2021.1.4,60.09218141213368,
sounds/droite.ogg,0.7,,3,0,3,0,0,10,10,37,,,,,399.3443537099869,398.6600826999929,,,,001,2021_Apr_30_1327,list_pa,2021.1.4,60.09218141213368,
sounds/droite.ogg,0.7,,3,0,3,0,0,11,11,25,,,,,400.8449585099937,400.1602487999771,,,,001,2021_Apr_30_1327,list_pa,2021.1.4,60.09218141213368,
sounds/droite.ogg,0.7,,3,0,3,0,0,12,12,38,,,,,402.3454260100028,401.6603256999806,,,,001,2021_Apr_30_1327,list_pa,2021.1.4,60.09218141213368,
sounds/gauche.ogg,0.7,,3,0,3,0,0,13,13,16,,,,,403.84536000999503,403.1611597999872,,,,001,2021_Apr_30_1327,list_pa,2021.1.4,60.09218141213368,
sounds/droite.ogg,0.7,,3,0,3,0,0,14,14,48,,,,,405.3461238099902,404.6608978000004,,,,001,2021_Apr_30_1327,list_pa,2021.1.4,60.09218141213368,
sounds/gauche.ogg,0.7,,3,0,3,0,0,15,15,18,,,,,406.8463384099945,None,,,,001,2021_Apr_30_1327,list_pa,2021.1.4,60.09218141213368,
sounds/droite.ogg,0.7,,3,0,3,0,0,16,16,26,,,,,408.34639900999025,407.66202719998546,,,,001,2021_Apr_30_1327,list_pa,2021.1.4,60.09218141213368,
sounds/droite.ogg,0.7,,3,0,3,0,0,17,17,40,,,,,409.8467779099941,409.16230739999446,,,,001,2021_Apr_30_1327,list_pa,2021.1.4,60.09218141213368,
sounds/droite.ogg,0.7,,3,0,3,0,0,18,18,46,,,,,411.3474804099882,410.66269289999036,,,,001,2021_Apr_30_1327,list_pa,2021.1.4,60.09218141213368,
sounds/droite.ogg,0.7,,3,0,3,0,0,19,19,35,,,,,412.8476803099969,412.16306579997763,,,,001,2021_Apr_30_1327,list_pa,2021.1.4,60.09218141213368,
sounds/droite.ogg,0.7,,3,0,3,0,0,20,20,36,,,,,414.34798390998037,413.6619554999925,,,,001,2021_Apr_30_1327,list_pa,2021.1.4,60.09218141213368,
sounds/gauche.ogg,0.7,,3,0,3,0,0,21,21,20,,,,,415.84884210999587,415.16306579997763,,,,001,2021_Apr_30_1327,list_pa,2021.1.4,60.09218141213368,
sounds/droite.ogg,0.7,,3,0,3,0,0,22,22,31,,,,,417.3491858099936,416.66339770000195,,,,001,2021_Apr_30_1327,list_pa,2021.1.4,60.09218141213368,
sounds/gauche.ogg,0.7,,3,0,3,0,0,23,23,17,,,,,418.84906720999277,418.1641965000017,,,,001,2021_Apr_30_1327,list_pa,2021.1.4,60.09218141213368,
sounds/gauche.ogg,0.7,,3,0,3,0,0,24,24,21,,,,,420.34923720997756,419.66488689999096,,,,001,2021_Apr_30_1327,list_pa,2021.1.4,60.09218141213368,
sounds/gauche.ogg,0.7,,3,0,3,0,0,25,25,13,,,,,421.85015930998486,421.1649880000041,,,,001,2021_Apr_30_1327,list_pa,2021.1.4,60.09218141213368,
sounds/gauche.ogg,0.7,,3,0,3,0,0,26,26,5,,,,,423.3491067100025,422.6648927999777,,,,001,2021_Apr_30_1327,list_pa,2021.1.4,60.09218141213368,
sounds/gauche.ogg,0.7,,3,0,3,0,0,27,27,3,,,,,424.8502480099909,424.16503159998683,,,,001,2021_Apr_30_1327,list_pa,2021.1.4,60.09218141213368,
sounds/gauche.ogg,0.7,,3,0,3,0,0,28,28,24,,,,,426.35065140997756,None,,,,001,2021_Apr_30_1327,list_pa,2021.1.4,60.09218141213368,
sounds/droite.ogg,0.7,,3,0,3,0,0,29,29,28,,,,,427.86791860999654,427.1646550000005,,,,001,2021_Apr_30_1327,list_pa,2021.1.4,60.09218141213368,
sounds/gauche.ogg,0.7,,3,0,3,0,0,30,30,23,,,,,429.3676962099911,428.6826164999802,,,,001,2021_Apr_30_1327,list_pa,2021.1.4,60.09218141213368,
sounds/droite.ogg,0.7,,3,0,3,0,0,31,31,45,,,,,430.868267010001,430.18383399999584,,,,001,2021_Apr_30_1327,list_pa,2021.1.4,60.09218141213368,
sounds/gauche.ogg,0.7,,3,0,3,0,0,32,32,1,,,,,432.36889490998,431.68405650000204,,,,001,2021_Apr_30_1327,list_pa,2021.1.4,60.09218141213368,
sounds/gauche.ogg,0.7,,3,0,3,0,0,33,33,7,,,,,433.8687091099913,433.18319650000194,,,,001,2021_Apr_30_1327,list_pa,2021.1.4,60.09218141213368,
sounds/gauche.ogg,0.7,,3,0,3,0,0,34,34,14,,,,,435.36899640999616,434.6846852999879,,,,001,2021_Apr_30_1327,list_pa,2021.1.4,60.09218141213368,
sounds/gauche.ogg,0.7,,3,0,3,0,0,35,35,9,,,,,436.86938550999037,436.18502000000444,,,,001,2021_Apr_30_1327,list_pa,2021.1.4,60.09218141213368,
sounds/gauche.ogg,0.7,,3,0,3,0,0,36,36,19,,,,,438.3695267099887,437.68462409998756,,,,001,2021_Apr_30_1327,list_pa,2021.1.4,60.09218141213368,
sounds/droite.ogg,0.7,,3,0,3,0,0,37,37,33,,,,,439.8697360099817,None,,,,001,2021_Apr_30_1327,list_pa,2021.1.4,60.09218141213368,
sounds/droite.ogg,0.7,,3,0,3,0,0,38,38,47,,,,,441.3706725099822,440.6854334999807,,,,001,2021_Apr_30_1327,list_pa,2021.1.4,60.09218141213368,
sounds/droite.ogg,0.7,,3,0,3,0,0,39,39,34,,,,,442.8704754099948,442.18554000000586,,,,001,2021_Apr_30_1327,list_pa,2021.1.4,60.09218141213368,
sounds/gauche.ogg,0.7,,3,0,3,0,0,40,40,22,,,,,444.3706752100028,None,,,,001,2021_Apr_30_1327,list_pa,2021.1.4,60.09218141213368,
sounds/droite.ogg,0.7,,3,0,3,0,0,41,41,27,,,,,445.87115500998914,None,,,,001,2021_Apr_30_1327,list_pa,2021.1.4,60.09218141213368,
sounds/droite.ogg,0.7,,3,0,3,0,0,42,42,41,,,,,447.37207140998214,446.6859312999877,,,,001,2021_Apr_30_1327,list_pa,2021.1.4,60.09218141213368,
sounds/gauche.ogg,0.7,,3,0,3,0,0,43,43,10,,,,,448.8720814100001,448.18680389999645,,,,001,2021_Apr_30_1327,list_pa,2021.1.4,60.09218141213368,
sounds/gauche.ogg,0.7,,3,0,3,0,0,44,44,6,,,,,450.37172930999657,449.68665930000134,,,,001,2021_Apr_30_1327,list_pa,2021.1.4,60.09218141213368,
sounds/droite.ogg,0.7,,3,0,3,0,0,45,45,42,,,,,451.87245320997897,451.18662689998746,,,,001,2021_Apr_30_1327,list_pa,2021.1.4,60.09218141213368,
sounds/droite.ogg,0.7,,3,0,3,0,0,46,46,43,,,,,453.3723194099788,452.6873240999994,,,,001,2021_Apr_30_1327,list_pa,2021.1.4,60.09218141213368,
sounds/gauche.ogg,0.7,,3,0,3,0,0,47,47,12,,,,,454.8728549099818,454.187503299996,,,,001,2021_Apr_30_1327,list_pa,2021.1.4,60.09218141213368,
sounds/droite.ogg,0.7,,3,0,3,0,0,48,48,30,,,,,456.3730340099777,455.6880622000026,,,,001,2021_Apr_30_1327,list_pa,2021.1.4,60.09218141213368,
sounds/gauche.ogg,0.7,,3,0,3,0,0,49,49,15,,,,,457.8739488099876,457.1885435000004,,,,001,2021_Apr_30_1327,list_pa,2021.1.4,60.09218141213368,
,,30,3,0,3,0,,,,,0,0,0,0,,,458.7043919999851,None,,001,2021_Apr_30_1327,list_pa,2021.1.4,60.09218141213368,
,,29,3,0,3,0,,,,,0,1,1,1,,,459.7056748000032,None,,001,2021_Apr_30_1327,list_pa,2021.1.4,60.09218141213368,
,,28,3,0,3,0,,,,,0,2,2,2,,,460.706091,None,,001,2021_Apr_30_1327,list_pa,2021.1.4,60.09218141213368,
,,27,3,0,3,0,,,,,0,3,3,3,,,461.70612580000306,None,,001,2021_Apr_30_1327,list_pa,2021.1.4,60.09218141213368,
,,26,3,0,3,0,,,,,0,4,4,4,,,462.70594210000127,None,,001,2021_Apr_30_1327,list_pa,2021.1.4,60.09218141213368,
,,25,3,0,3,0,,,,,0,5,5,5,,,463.7062954999856,None,,001,2021_Apr_30_1327,list_pa,2021.1.4,60.09218141213368,
,,24,3,0,3,0,,,,,0,6,6,6,,,464.70639310000115,None,,001,2021_Apr_30_1327,list_pa,2021.1.4,60.09218141213368,
,,23,3,0,3,0,,,,,0,7,7,7,,,465.7066708999919,None,,001,2021_Apr_30_1327,list_pa,2021.1.4,60.09218141213368,
,,22,3,0,3,0,,,,,0,8,8,8,,,466.7066765000054,None,,001,2021_Apr_30_1327,list_pa,2021.1.4,60.09218141213368,
,,21,3,0,3,0,,,,,0,9,9,9,,,467.70677029999206,None,,001,2021_Apr_30_1327,list_pa,2021.1.4,60.09218141213368,
,,20,3,0,3,0,,,,,0,10,10,10,,,468.7070920999977,None,,001,2021_Apr_30_1327,list_pa,2021.1.4,60.09218141213368,
,,19,3,0,3,0,,,,,0,11,11,11,,,469.7076986999891,None,,001,2021_Apr_30_1327,list_pa,2021.1.4,60.09218141213368,
,,18,3,0,3,0,,,,,0,12,12,12,,,470.70750279998174,None,,001,2021_Apr_30_1327,list_pa,2021.1.4,60.09218141213368,
,,17,3,0,3,0,,,,,0,13,13,13,,,471.7078824999917,None,,001,2021_Apr_30_1327,list_pa,2021.1.4,60.09218141213368,
,,16,3,0,3,0,,,,,0,14,14,14,,,472.7083106999926,None,,001,2021_Apr_30_1327,list_pa,2021.1.4,60.09218141213368,
,,15,3,0,3,0,,,,,0,15,15,15,,,473.70880520000355,None,,001,2021_Apr_30_1327,list_pa,2021.1.4,60.09218141213368,
,,14,3,0,3,0,,,,,0,16,16,16,,,474.7089701999794,None,,001,2021_Apr_30_1327,list_pa,2021.1.4,60.09218141213368,
,,13,3,0,3,0,,,,,0,17,17,17,,,475.7090995000035,None,,001,2021_Apr_30_1327,list_pa,2021.1.4,60.09218141213368,
,,12,3,0,3,0,,,,,0,18,18,18,,,476.6924056999851,None,,001,2021_Apr_30_1327,list_pa,2021.1.4,60.09218141213368,
,,11,3,0,3,0,,,,,0,19,19,19,,,477.69265339997946,None,,001,2021_Apr_30_1327,list_pa,2021.1.4,60.09218141213368,
,,10,3,0,3,0,,,,,0,20,20,20,,,478.6930272000027,None,,001,2021_Apr_30_1327,list_pa,2021.1.4,60.09218141213368,
,,9,3,0,3,0,,,,,0,21,21,21,,,479.69387249997817,None,,001,2021_Apr_30_1327,list_pa,2021.1.4,60.09218141213368,
,,8,3,0,3,0,,,,,0,22,22,22,,,480.69335669997963,None,,001,2021_Apr_30_1327,list_pa,2021.1.4,60.09218141213368,
,,7,3,0,3,0,,,,,0,23,23,23,,,481.6940837999864,None,,001,2021_Apr_30_1327,list_pa,2021.1.4,60.09218141213368,
,,6,3,0,3,0,,,,,0,24,24,24,,,482.6938514999929,None,,001,2021_Apr_30_1327,list_pa,2021.1.4,60.09218141213368,
,,5,3,0,3,0,,,,,0,25,25,25,,,483.69393359997775,None,,001,2021_Apr_30_1327,list_pa,2021.1.4,60.09218141213368,
,,4,3,0,3,0,,,,,0,26,26,26,,,484.6946302999859,None,,001,2021_Apr_30_1327,list_pa,2021.1.4,60.09218141213368,
,,3,3,0,3,0,,,,,0,27,27,27,,,485.69451989998925,None,,001,2021_Apr_30_1327,list_pa,2021.1.4,60.09218141213368,
,,2,3,0,3,0,,,,,0,28,28,28,,,486.69465960000525,None,,001,2021_Apr_30_1327,list_pa,2021.1.4,60.09218141213368,
,,1,3,0,3,0,,,,,0,29,29,29,,,487.6946495999873,None,,001,2021_Apr_30_1327,list_pa,2021.1.4,60.09218141213368,
,,0,3,0,3,0,,,,,0,30,30,30,,,488.69537390000187,None,,001,2021_Apr_30_1327,list_pa,2021.1.4,60.09218141213368,
,,,3,0,3,0,,,,,,,,,,,,,,001,2021_Apr_30_1327,list_pa,2021.1.4,60.09218141213368,
sounds/droite.ogg,0.7,,4,0,4,0,0,0,0,44,,,,,490.41359310999394,None,,,,001,2021_Apr_30_1327,list_pa,2021.1.4,60.09218141213368,
sounds/gauche.ogg,0.7,,4,0,4,0,0,1,1,13,,,,,491.91387460998374,491.22899519998464,,,,001,2021_Apr_30_1327,list_pa,2021.1.4,60.09218141213368,
sounds/gauche.ogg,0.7,,4,0,4,0,0,2,2,14,,,,,493.4139450099959,492.7290351999982,,,,001,2021_Apr_30_1327,list_pa,2021.1.4,60.09218141213368,
sounds/droite.ogg,0.7,,4,0,4,0,0,3,3,35,,,,,494.91420730998504,494.2293292999966,,,,001,2021_Apr_30_1327,list_pa,2021.1.4,60.09218141213368,
sounds/gauche.ogg,0.7,,4,0,4,0,0,4,4,24,,,,,496.4145916100009,None,,,,001,2021_Apr_30_1327,list_pa,2021.1.4,60.09218141213368,
sounds/gauche.ogg,0.7,,4,0,4,0,0,5,5,9,,,,,497.9146998099808,497.22989869999583,,,,001,2021_Apr_30_1327,list_pa,2021.1.4,60.09218141213368,
sounds/gauche.ogg,0.7,,4,0,4,0,0,6,6,15,,,,,499.4155135099776,498.7297999000002,,,,001,2021_Apr_30_1327,list_pa,2021.1.4,60.09218141213368,
sounds/droite.ogg,0.7,,4,0,4,0,0,7,7,36,,,,,500.91520260999675,None,,,,001,2021_Apr_30_1327,list_pa,2021.1.4,60.09218141213368,
sounds/gauche.ogg,0.7,,4,0,4,0,0,8,8,12,,,,,502.4158954100043,501.7311475999886,,,,001,2021_Apr_30_1327,list_pa,2021.1.4,60.09218141213368,
sounds/gauche.ogg,0.7,,4,0,4,0,0,9,9,23,,,,,503.9158222099999,503.2312185000046,,,,001,2021_Apr_30_1327,list_pa,2021.1.4,60.09218141213368,
sounds/droite.ogg,0.7,,4,0,4,0,0,10,10,34,,,,,505.41639971000257,504.7311621999834,,,,001,2021_Apr_30_1327,list_pa,2021.1.4,60.09218141213368,
sounds/droite.ogg,0.7,,4,0,4,0,0,11,11,29,,,,,506.9168133099796,506.2317802000034,,,,001,2021_Apr_30_1327,list_pa,2021.1.4,60.09218141213368,
sounds/gauche.ogg,0.7,,4,0,4,0,0,12,12,18,,,,,508.41682411000363,507.7323987999989,,,,001,2021_Apr_30_1327,list_pa,2021.1.4,60.09218141213368,
sounds/droite.ogg,0.7,,4,0,4,0,0,13,13,49,,,,,509.91739200999143,509.23204269999405,,,,001,2021_Apr_30_1327,list_pa,2021.1.4,60.09218141213368,
sounds/gauche.ogg,0.7,,4,0,4,0,0,14,14,2,,,,,511.4170720099995,510.7325393999927,,,,001,2021_Apr_30_1327,list_pa,2021.1.4,60.09218141213368,
sounds/gauche.ogg,0.7,,4,0,4,0,0,15,15,3,,,,,512.9180573099933,512.2329438999877,,,,001,2021_Apr_30_1327,list_pa,2021.1.4,60.09218141213368,
sounds/droite.ogg,0.7,,4,0,4,0,0,16,16,46,,,,,514.4188454099989,513.7331066000042,,,,001,2021_Apr_30_1327,list_pa,2021.1.4,60.09218141213368,
sounds/gauche.ogg,0.7,,4,0,4,0,0,17,17,17,,,,,515.9193213099846,515.233665399981,,,,001,2021_Apr_30_1327,list_pa,2021.1.4,60.09218141213368,
sounds/droite.ogg,0.7,,4,0,4,0,0,18,18,31,,,,,517.4189488100004,None,,,,001,2021_Apr_30_1327,list_pa,2021.1.4,60.09218141213368,
sounds/gauche.ogg,0.7,,4,0,4,0,0,19,19,5,,,,,518.9190535099827,518.2351934000035,,,,001,2021_Apr_30_1327,list_pa,2021.1.4,60.09218141213368,
sounds/gauche.ogg,0.7,,4,0,4,0,0,20,20,6,,,,,520.4193264099944,519.7346712999861,,,,001,2021_Apr_30_1327,list_pa,2021.1.4,60.09218141213368,
sounds/droite.ogg,0.7,,4,0,4,0,0,21,21,43,,,,,521.9198494099895,None,,,,001,2021_Apr_30_1327,list_pa,2021.1.4,60.09218141213368,
sounds/droite.ogg,0.7,,4,0,4,0,0,22,22,30,,,,,523.4205112099938,522.7351796999865,,,,001,2021_Apr_30_1327,list_pa,2021.1.4,60.09218141213368,
sounds/gauche.ogg,0.7,,4,0,4,0,0,23,23,16,,,,,524.9206024099898,524.2354603999993,,,,001,2021_Apr_30_1327,list_pa,2021.1.4,60.09218141213368,
sounds/droite.ogg,0.7,,4,0,4,0,0,24,24,26,,,,,526.420724609989,525.7351799999888,,,,001,2021_Apr_30_1327,list_pa,2021.1.4,60.09218141213368,
sounds/droite.ogg,0.7,,4,0,4,0,0,25,25,28,,,,,527.921753309993,527.2356964999926,,,,001,2021_Apr_30_1327,list_pa,2021.1.4,60.09218141213368,
sounds/droite.ogg,0.7,,4,0,4,0,0,26,26,42,,,,,529.4213613099768,528.7362849999918,,,,001,2021_Apr_30_1327,list_pa,2021.1.4,60.09218141213368,
sounds/droite.ogg,0.7,,4,0,4,0,0,27,27,40,,,,,530.9218538100016,530.2363256999815,,,,001,2021_Apr_30_1327,list_pa,2021.1.4,60.09218141213368,
sounds/droite.ogg,0.7,,4,0,4,0,0,28,28,37,,,,,532.4221628099971,531.7366035000014,,,,001,2021_Apr_30_1327,list_pa,2021.1.4,60.09218141213368,
sounds/droite.ogg,0.7,,4,0,4,0,0,29,29,41,,,,,533.9198925099976,533.2369392999972,,,,001,2021_Apr_30_1327,list_pa,2021.1.4,60.09218141213368,
sounds/droite.ogg,0.7,,4,0,4,0,0,30,30,27,,,,,535.4226429099857,None,,,,001,2021_Apr_30_1327,list_pa,2021.1.4,60.09218141213368,
sounds/gauche.ogg,0.7,,4,0,4,0,0,31,31,11,,,,,536.9229280100029,536.2377604999929,,,,001,2021_Apr_30_1327,list_pa,2021.1.4,60.09218141213368,
sounds/gauche.ogg,0.7,,4,0,4,0,0,32,32,20,,,,,538.4234509099973,537.7384394999826,,,,001,2021_Apr_30_1327,list_pa,2021.1.4,60.09218141213368,
sounds/gauche.ogg,0.7,,4,0,4,0,0,33,33,10,,,,,539.9233898099977,None,,,,001,2021_Apr_30_1327,list_pa,2021.1.4,60.09218141213368,
sounds/gauche.ogg,0.7,,4,0,4,0,0,34,34,4,,,,,541.4237671099894,540.7387350999925,,,,001,2021_Apr_30_1327,list_pa,2021.1.4,60.09218141213368,
sounds/droite.ogg,0.7,,4,0,4,0,0,35,35,47,,,,,542.9239941100008,542.2393484000058,,,,001,2021_Apr_30_1327,list_pa,2021.1.4,60.09218141213368,
sounds/gauche.ogg,0.7,,4,0,4,0,0,36,36,21,,,,,544.4244038099772,543.7391041999799,,,,001,2021_Apr_30_1327,list_pa,2021.1.4,60.09218141213368,
sounds/gauche.ogg,0.7,,4,0,4,0,0,37,37,7,,,,,545.9243972099852,545.2397306999774,,,,001,2021_Apr_30_1327,list_pa,2021.1.4,60.09218141213368,
sounds/droite.ogg,0.7,,4,0,4,0,0,38,38,32,,,,,547.4247814100003,546.740269300004,,,,001,2021_Apr_30_1327,list_pa,2021.1.4,60.09218141213368,
sounds/gauche.ogg,0.7,,4,0,4,0,0,39,39,22,,,,,548.9252784100012,548.2402710999886,,,,001,2021_Apr_30_1327,list_pa,2021.1.4,60.09218141213368,
sounds/gauche.ogg,0.7,,4,0,4,0,0,40,40,19,,,,,550.4253493099881,549.740232399985,,,,001,2021_Apr_30_1327,list_pa,2021.1.4,60.09218141213368,
sounds/gauche.ogg,0.7,,4,0,4,0,0,41,41,1,,,,,551.9252193099877,551.2407101999852,,,,001,2021_Apr_30_1327,list_pa,2021.1.4,60.09218141213368,
sounds/droite.ogg,0.7,,4,0,4,0,0,42,42,48,,,,,553.4262553099892,552.7409384999773,,,,001,2021_Apr_30_1327,list_pa,2021.1.4,60.09218141213368,
sounds/droite.ogg,0.7,,4,0,4,0,0,43,43,25,,,,,554.926411209983,554.2415913000004,,,,001,2021_Apr_30_1327,list_pa,2021.1.4,60.09218141213368,
sounds/droite.ogg,0.7,,4,0,4,0,0,44,44,45,,,,,556.4265262099856,None,,,,001,2021_Apr_30_1327,list_pa,2021.1.4,60.09218141213368,
sounds/droite.ogg,0.7,,4,0,4,0,0,45,45,38,,,,,557.9268546099833,557.2424752999796,,,,001,2021_Apr_30_1327,list_pa,2021.1.4,60.09218141213368,
sounds/gauche.ogg,0.7,,4,0,4,0,0,46,46,0,,,,,559.4272579099983,558.7425793999864,,,,001,2021_Apr_30_1327,list_pa,2021.1.4,60.09218141213368,
sounds/droite.ogg,0.7,,4,0,4,0,0,47,47,33,,,,,560.9274429099809,560.242900799989,,,,001,2021_Apr_30_1327,list_pa,2021.1.4,60.09218141213368,
sounds/droite.ogg,0.7,,4,0,4,0,0,48,48,39,,,,,562.4284235099971,561.7432134999835,,,,001,2021_Apr_30_1327,list_pa,2021.1.4,60.09218141213368,
sounds/gauche.ogg,0.7,,4,0,4,0,0,49,49,8,,,,,563.928901009995,563.2437511000026,,,,001,2021_Apr_30_1327,list_pa,2021.1.4,60.09218141213368,
,,30,4,0,4,0,,,,,0,0,0,0,,,564.7762382999936,None,,001,2021_Apr_30_1327,list_pa,2021.1.4,60.09218141213368,
,,29,4,0,4,0,,,,,0,1,1,1,,,565.7607739999949,None,,001,2021_Apr_30_1327,list_pa,2021.1.4,60.09218141213368,
,,28,4,0,4,0,,,,,0,2,2,2,,,566.7609937999805,None,,001,2021_Apr_30_1327,list_pa,2021.1.4,60.09218141213368,
,,27,4,0,4,0,,,,,0,3,3,3,,,567.7607026000042,None,,001,2021_Apr_30_1327,list_pa,2021.1.4,60.09218141213368,
,,26,4,0,4,0,,,,,0,4,4,4,,,568.7613116999855,None,,001,2021_Apr_30_1327,list_pa,2021.1.4,60.09218141213368,
,,25,4,0,4,0,,,,,0,5,5,5,,,569.7613082999887,None,,001,2021_Apr_30_1327,list_pa,2021.1.4,60.09218141213368,
,,24,4,0,4,0,,,,,0,6,6,6,,,570.7618443999963,None,,001,2021_Apr_30_1327,list_pa,2021.1.4,60.09218141213368,
,,23,4,0,4,0,,,,,0,7,7,7,,,571.7617333999951,None,,001,2021_Apr_30_1327,list_pa,2021.1.4,60.09218141213368,
,,22,4,0,4,0,,,,,0,8,8,8,,,572.7618960999826,None,,001,2021_Apr_30_1327,list_pa,2021.1.4,60.09218141213368,
,,21,4,0,4,0,,,,,0,9,9,9,,,573.7620853999979,None,,001,2021_Apr_30_1327,list_pa,2021.1.4,60.09218141213368,
,,20,4,0,4,0,,,,,0,10,10,10,,,574.7623349999776,None,,001,2021_Apr_30_1327,list_pa,2021.1.4,60.09218141213368,
,,19,4,0,4,0,,,,,0,11,11,11,,,575.7638167999976,None,,001,2021_Apr_30_1327,list_pa,2021.1.4,60.09218141213368,
,,18,4,0,4,0,,,,,0,12,12,12,,,576.7628879999975,None,,001,2021_Apr_30_1327,list_pa,2021.1.4,60.09218141213368,
,,17,4,0,4,0,,,,,0,13,13,13,,,577.7458214999933,None,,001,2021_Apr_30_1327,list_pa,2021.1.4,60.09218141213368,
,,16,4,0,4,0,,,,,0,14,14,14,,,578.7459635999985,None,,001,2021_Apr_30_1327,list_pa,2021.1.4,60.09218141213368,
,,15,4,0,4,0,,,,,0,15,15,15,,,579.7465268999804,None,,001,2021_Apr_30_1327,list_pa,2021.1.4,60.09218141213368,
,,14,4,0,4,0,,,,,0,16,16,16,,,580.7465377000044,None,,001,2021_Apr_30_1327,list_pa,2021.1.4,60.09218141213368,
,,13,4,0,4,0,,,,,0,17,17,17,,,581.7468419999932,None,,001,2021_Apr_30_1327,list_pa,2021.1.4,60.09218141213368,
,,12,4,0,4,0,,,,,0,18,18,18,,,582.7468725999934,None,,001,2021_Apr_30_1327,list_pa,2021.1.4,60.09218141213368,
,,11,4,0,4,0,,,,,0,19,19,19,,,583.7472421999846,None,,001,2021_Apr_30_1327,list_pa,2021.1.4,60.09218141213368,
,,10,4,0,4,0,,,,,0,20,20,20,,,584.747457599995,None,,001,2021_Apr_30_1327,list_pa,2021.1.4,60.09218141213368,
,,9,4,0,4,0,,,,,0,21,21,21,,,585.7475834999932,None,,001,2021_Apr_30_1327,list_pa,2021.1.4,60.09218141213368,
,,8,4,0,4,0,,,,,0,22,22,22,,,586.7480514000054,None,,001,2021_Apr_30_1327,list_pa,2021.1.4,60.09218141213368,
,,7,4,0,4,0,,,,,0,23,23,23,,,587.7484658999892,None,,001,2021_Apr_30_1327,list_pa,2021.1.4,60.09218141213368,
,,6,4,0,4,0,,,,,0,24,24,24,,,588.7488075000001,None,,001,2021_Apr_30_1327,list_pa,2021.1.4,60.09218141213368,
,,5,4,0,4,0,,,,,0,25,25,25,,,589.7485141999787,None,,001,2021_Apr_30_1327,list_pa,2021.1.4,60.09218141213368,
,,4,4,0,4,0,,,,,0,26,26,26,,,590.74874119999,None,,001,2021_Apr_30_1327,list_pa,2021.1.4,60.09218141213368,
,,3,4,0,4,0,,,,,0,27,27,27,,,591.7494274999772,None,,001,2021_Apr_30_1327,list_pa,2021.1.4,60.09218141213368,
,,2,4,0,4,0,,,,,0,28,28,28,,,592.7496121999866,None,,001,2021_Apr_30_1327,list_pa,2021.1.4,60.09218141213368,
,,1,4,0,4,0,,,,,0,29,29,29,,,593.7321574999951,None,,001,2021_Apr_30_1327,list_pa,2021.1.4,60.09218141213368,
,,0,4,0,4,0,,,,,0,30,30,30,,,594.7499223999912,None,,001,2021_Apr_30_1327,list_pa,2021.1.4,60.09218141213368,
,,,4,0,4,0,,,,,,,,,,,,,,001,2021_Apr_30_1327,list_pa,2021.1.4,60.09218141213368,
