word_stimuli,isi,countdown,trials.thisRepN,trials.thisTrialN,trials.thisN,trials.thisIndex,trial_loop.thisRepN,trial_loop.thisTrialN,trial_loop.thisN,trial_loop.thisIndex,trials_2.thisRepN,trials_2.thisTrialN,trials_2.thisN,trials_2.thisIndex,sound_exposure.started,sound_exposure.stopped,text.started,text.stopped,participant,session,date,expName,psychopyVersion,frameRate,
sounds/gauche.ogg,0.7,,0,0,0,0,0,0,0,14,,,,,24.042817699986337,None,,,,001,2021_May_04_1523,list_pa,2021.1.4,60.803949826908905,
sounds/gauche.ogg,0.7,,0,0,0,0,0,1,1,22,,,,,25.545210399986537,24.86025269998936,,,,001,2021_May_04_1523,list_pa,2021.1.4,60.803949826908905,
sounds/gauche.ogg,0.7,,0,0,0,0,0,2,2,24,,,,,27.04484599999123,26.359787399997003,,,,001,2021_May_04_1523,list_pa,2021.1.4,60.803949826908905,
sounds/gauche.ogg,0.7,,0,0,0,0,0,3,3,10,,,,,28.545774999992865,None,,,,001,2021_May_04_1523,list_pa,2021.1.4,60.803949826908905,
sounds/droite.ogg,0.7,,0,0,0,0,0,4,4,32,,,,,30.04591459999356,29.360821299997042,,,,001,2021_May_04_1523,list_pa,2021.1.4,60.803949826908905,
sounds/droite.ogg,0.7,,0,0,0,0,0,5,5,46,,,,,31.545719599993028,30.86053869999887,,,,001,2021_May_04_1523,list_pa,2021.1.4,60.803949826908905,
sounds/gauche.ogg,0.7,,0,0,0,0,0,6,6,3,,,,,33.046640999995,32.36090069999045,,,,001,2021_May_04_1523,list_pa,2021.1.4,60.803949826908905,
sounds/gauche.ogg,0.7,,0,0,0,0,0,7,7,2,,,,,34.54718319999083,33.861243899998954,,,,001,2021_May_04_1523,list_pa,2021.1.4,60.803949826908905,
sounds/droite.ogg,0.7,,0,0,0,0,0,8,8,41,,,,,36.047506399992564,None,,,,001,2021_May_04_1523,list_pa,2021.1.4,60.803949826908905,
sounds/gauche.ogg,0.7,,0,0,0,0,0,9,9,13,,,,,37.54776039999124,36.86189529999683,,,,001,2021_May_04_1523,list_pa,2021.1.4,60.803949826908905,
sounds/gauche.ogg,0.7,,0,0,0,0,0,10,10,17,,,,,39.04779229998676,38.36271819999092,,,,001,2021_May_04_1523,list_pa,2021.1.4,60.803949826908905,
sounds/gauche.ogg,0.7,,0,0,0,0,0,11,11,9,,,,,40.54801099999313,39.8629774999863,,,,001,2021_May_04_1523,list_pa,2021.1.4,60.803949826908905,
sounds/droite.ogg,0.7,,0,0,0,0,0,12,12,33,,,,,42.04600729998638,41.36305749999883,,,,001,2021_May_04_1523,list_pa,2021.1.4,60.803949826908905,
sounds/gauche.ogg,0.7,,0,0,0,0,0,13,13,15,,,,,43.54789829999354,42.86340509999718,,,,001,2021_May_04_1523,list_pa,2021.1.4,60.803949826908905,
sounds/gauche.ogg,0.7,,0,0,0,0,0,14,14,12,,,,,45.04833259999723,44.36372979999578,,,,001,2021_May_04_1523,list_pa,2021.1.4,60.803949826908905,
sounds/droite.ogg,0.7,,0,0,0,0,0,15,15,37,,,,,46.548979399989186,45.864237199988565,,,,001,2021_May_04_1523,list_pa,2021.1.4,60.803949826908905,
sounds/droite.ogg,0.7,,0,0,0,0,0,16,16,34,,,,,48.04939099999465,47.36452809999173,,,,001,2021_May_04_1523,list_pa,2021.1.4,60.803949826908905,
sounds/droite.ogg,0.7,,0,0,0,0,0,17,17,48,,,,,49.549506999990264,48.864927199989324,,,,001,2021_May_04_1523,list_pa,2021.1.4,60.803949826908905,
sounds/droite.ogg,0.7,,0,0,0,0,0,18,18,39,,,,,51.04969869999477,50.36445029999595,,,,001,2021_May_04_1523,list_pa,2021.1.4,60.803949826908905,
sounds/gauche.ogg,0.7,,0,0,0,0,0,19,19,4,,,,,52.55067429998744,None,,,,001,2021_May_04_1523,list_pa,2021.1.4,60.803949826908905,
sounds/droite.ogg,0.7,,0,0,0,0,0,20,20,26,,,,,54.050354900000094,53.36588439998741,,,,001,2021_May_04_1523,list_pa,2021.1.4,60.803949826908905,
sounds/droite.ogg,0.7,,0,0,0,0,0,21,21,44,,,,,55.55105569999578,54.866190299988375,,,,001,2021_May_04_1523,list_pa,2021.1.4,60.803949826908905,
sounds/droite.ogg,0.7,,0,0,0,0,0,22,22,43,,,,,57.051022899993406,None,,,,001,2021_May_04_1523,list_pa,2021.1.4,60.803949826908905,
sounds/droite.ogg,0.7,,0,0,0,0,0,23,23,31,,,,,58.54986479999352,57.86642619999475,,,,001,2021_May_04_1523,list_pa,2021.1.4,60.803949826908905,
sounds/gauche.ogg,0.7,,0,0,0,0,0,24,24,19,,,,,60.05180540000001,59.36675379998633,,,,001,2021_May_04_1523,list_pa,2021.1.4,60.803949826908905,
sounds/droite.ogg,0.7,,0,0,0,0,0,25,25,30,,,,,61.552017499999785,60.86737909998919,,,,001,2021_May_04_1523,list_pa,2021.1.4,60.803949826908905,
sounds/gauche.ogg,0.7,,0,0,0,0,0,26,26,7,,,,,63.05252579999942,62.367144899995765,,,,001,2021_May_04_1523,list_pa,2021.1.4,60.803949826908905,
sounds/droite.ogg,0.7,,0,0,0,0,0,27,27,27,,,,,64.55249669999611,63.86780199999339,,,,001,2021_May_04_1523,list_pa,2021.1.4,60.803949826908905,
sounds/gauche.ogg,0.7,,0,0,0,0,0,28,28,8,,,,,66.0532371999885,65.36735779998708,,,,001,2021_May_04_1523,list_pa,2021.1.4,60.803949826908905,
sounds/gauche.ogg,0.7,,0,0,0,0,0,29,29,0,,,,,67.55353519998752,66.86844229999406,,,,001,2021_May_04_1523,list_pa,2021.1.4,60.803949826908905,
sounds/droite.ogg,0.7,,0,0,0,0,0,30,30,45,,,,,69.05372369999677,68.36865519999992,,,,001,2021_May_04_1523,list_pa,2021.1.4,60.803949826908905,
sounds/gauche.ogg,0.7,,0,0,0,0,0,31,31,23,,,,,70.55412119999673,69.86895709999953,,,,001,2021_May_04_1523,list_pa,2021.1.4,60.803949826908905,
sounds/droite.ogg,0.7,,0,0,0,0,0,32,32,40,,,,,72.0544715999873,71.36968219999108,,,,001,2021_May_04_1523,list_pa,2021.1.4,60.803949826908905,
sounds/droite.ogg,0.7,,0,0,0,0,0,33,33,38,,,,,73.55459199998731,None,,,,001,2021_May_04_1523,list_pa,2021.1.4,60.803949826908905,
sounds/gauche.ogg,0.7,,0,0,0,0,0,34,34,20,,,,,75.05500199999514,74.3699207999889,,,,001,2021_May_04_1523,list_pa,2021.1.4,60.803949826908905,
sounds/droite.ogg,0.7,,0,0,0,0,0,35,35,25,,,,,76.55592979998764,None,,,,001,2021_May_04_1523,list_pa,2021.1.4,60.803949826908905,
sounds/gauche.ogg,0.7,,0,0,0,0,0,36,36,1,,,,,78.05680579999316,77.36997969998629,,,,001,2021_May_04_1523,list_pa,2021.1.4,60.803949826908905,
sounds/gauche.ogg,0.7,,0,0,0,0,0,37,37,16,,,,,79.55607459999882,78.8705309999932,,,,001,2021_May_04_1523,list_pa,2021.1.4,60.803949826908905,
sounds/droite.ogg,0.7,,0,0,0,0,0,38,38,47,,,,,81.05640289999573,80.37098639999749,,,,001,2021_May_04_1523,list_pa,2021.1.4,60.803949826908905,
sounds/gauche.ogg,0.7,,0,0,0,0,0,39,39,18,,,,,82.55727219999389,81.87133829999948,,,,001,2021_May_04_1523,list_pa,2021.1.4,60.803949826908905,
sounds/droite.ogg,0.7,,0,0,0,0,0,40,40,28,,,,,84.0571017999915,83.37134369999694,,,,001,2021_May_04_1523,list_pa,2021.1.4,60.803949826908905,
sounds/droite.ogg,0.7,,0,0,0,0,0,41,41,36,,,,,85.55655379999516,84.87158149998868,,,,001,2021_May_04_1523,list_pa,2021.1.4,60.803949826908905,
sounds/gauche.ogg,0.7,,0,0,0,0,0,42,42,21,,,,,87.05828349999646,86.37274059999618,,,,001,2021_May_04_1523,list_pa,2021.1.4,60.803949826908905,
sounds/droite.ogg,0.7,,0,0,0,0,0,43,43,42,,,,,88.55806949999678,87.87246199999936,,,,001,2021_May_04_1523,list_pa,2021.1.4,60.803949826908905,
sounds/droite.ogg,0.7,,0,0,0,0,0,44,44,29,,,,,90.05818829999916,89.37269079999533,,,,001,2021_May_04_1523,list_pa,2021.1.4,60.803949826908905,
sounds/gauche.ogg,0.7,,0,0,0,0,0,45,45,5,,,,,91.55782709999912,None,,,,001,2021_May_04_1523,list_pa,2021.1.4,60.803949826908905,
sounds/gauche.ogg,0.7,,0,0,0,0,0,46,46,11,,,,,93.05869189999211,92.37414389998594,,,,001,2021_May_04_1523,list_pa,2021.1.4,60.803949826908905,
sounds/droite.ogg,0.7,,0,0,0,0,0,47,47,49,,,,,94.55809299998654,93.87406839999312,,,,001,2021_May_04_1523,list_pa,2021.1.4,60.803949826908905,
sounds/droite.ogg,0.7,,0,0,0,0,0,48,48,35,,,,,96.05927200000005,None,,,,001,2021_May_04_1523,list_pa,2021.1.4,60.803949826908905,
sounds/gauche.ogg,0.7,,0,0,0,0,0,49,49,6,,,,,97.55933009999134,96.87445469999511,,,,001,2021_May_04_1523,list_pa,2021.1.4,60.803949826908905,
,,30,0,0,0,0,,,,,0,0,0,0,,,98.46617439998954,None,,001,2021_May_04_1523,list_pa,2021.1.4,60.803949826908905,
,,29,0,0,0,0,,,,,0,1,1,1,,,99.3913620999956,None,,001,2021_May_04_1523,list_pa,2021.1.4,60.803949826908905,
,,28,0,0,0,0,,,,,0,2,2,2,,,100.39176679999218,None,,001,2021_May_04_1523,list_pa,2021.1.4,60.803949826908905,
,,27,0,0,0,0,,,,,0,3,3,3,,,101.39167339999403,None,,001,2021_May_04_1523,list_pa,2021.1.4,60.803949826908905,
,,26,0,0,0,0,,,,,0,4,4,4,,,102.39187229999516,None,,001,2021_May_04_1523,list_pa,2021.1.4,60.803949826908905,
,,25,0,0,0,0,,,,,0,5,5,5,,,103.39217769999232,None,,001,2021_May_04_1523,list_pa,2021.1.4,60.803949826908905,
,,24,0,0,0,0,,,,,0,6,6,6,,,104.39277989999391,None,,001,2021_May_04_1523,list_pa,2021.1.4,60.803949826908905,
,,23,0,0,0,0,,,,,0,7,7,7,,,105.39249019999988,None,,001,2021_May_04_1523,list_pa,2021.1.4,60.803949826908905,
,,22,0,0,0,0,,,,,0,8,8,8,,,106.39265589999559,None,,001,2021_May_04_1523,list_pa,2021.1.4,60.803949826908905,
,,21,0,0,0,0,,,,,0,9,9,9,,,107.39323699999659,None,,001,2021_May_04_1523,list_pa,2021.1.4,60.803949826908905,
,,20,0,0,0,0,,,,,0,10,10,10,,,108.39356229999976,None,,001,2021_May_04_1523,list_pa,2021.1.4,60.803949826908905,
,,19,0,0,0,0,,,,,0,11,11,11,,,109.39456169999903,None,,001,2021_May_04_1523,list_pa,2021.1.4,60.803949826908905,
,,18,0,0,0,0,,,,,0,12,12,12,,,110.39361729999655,None,,001,2021_May_04_1523,list_pa,2021.1.4,60.803949826908905,
,,17,0,0,0,0,,,,,0,13,13,13,,,111.39400259999093,None,,001,2021_May_04_1523,list_pa,2021.1.4,60.803949826908905,
,,16,0,0,0,0,,,,,0,14,14,14,,,112.39449549998972,None,,001,2021_May_04_1523,list_pa,2021.1.4,60.803949826908905,
,,15,0,0,0,0,,,,,0,15,15,15,,,113.39493599999696,None,,001,2021_May_04_1523,list_pa,2021.1.4,60.803949826908905,
,,14,0,0,0,0,,,,,0,16,16,16,,,114.39498579999781,None,,001,2021_May_04_1523,list_pa,2021.1.4,60.803949826908905,
,,13,0,0,0,0,,,,,0,17,17,17,,,115.39520169999741,None,,001,2021_May_04_1523,list_pa,2021.1.4,60.803949826908905,
,,12,0,0,0,0,,,,,0,18,18,18,,,116.39481099999102,None,,001,2021_May_04_1523,list_pa,2021.1.4,60.803949826908905,
,,11,0,0,0,0,,,,,0,19,19,19,,,117.37889429999632,None,,001,2021_May_04_1523,list_pa,2021.1.4,60.803949826908905,
,,10,0,0,0,0,,,,,0,20,20,20,,,118.39423839999654,None,,001,2021_May_04_1523,list_pa,2021.1.4,60.803949826908905,
,,9,0,0,0,0,,,,,0,21,21,21,,,119.37911229999736,None,,001,2021_May_04_1523,list_pa,2021.1.4,60.803949826908905,
,,8,0,0,0,0,,,,,0,22,22,22,,,120.37989969999762,None,,001,2021_May_04_1523,list_pa,2021.1.4,60.803949826908905,
,,7,0,0,0,0,,,,,0,23,23,23,,,121.37895889999345,None,,001,2021_May_04_1523,list_pa,2021.1.4,60.803949826908905,
,,6,0,0,0,0,,,,,0,24,24,24,,,122.38021129999834,None,,001,2021_May_04_1523,list_pa,2021.1.4,60.803949826908905,
,,5,0,0,0,0,,,,,0,25,25,25,,,123.38033779998659,None,,001,2021_May_04_1523,list_pa,2021.1.4,60.803949826908905,
,,4,0,0,0,0,,,,,0,26,26,26,,,124.38032899999234,None,,001,2021_May_04_1523,list_pa,2021.1.4,60.803949826908905,
,,3,0,0,0,0,,,,,0,27,27,27,,,125.38033559999894,None,,001,2021_May_04_1523,list_pa,2021.1.4,60.803949826908905,
,,2,0,0,0,0,,,,,0,28,28,28,,,126.3805915999983,None,,001,2021_May_04_1523,list_pa,2021.1.4,60.803949826908905,
,,1,0,0,0,0,,,,,0,29,29,29,,,127.38097529999504,None,,001,2021_May_04_1523,list_pa,2021.1.4,60.803949826908905,
,,0,0,0,0,0,,,,,0,30,30,30,,,128.38090009998996,None,,001,2021_May_04_1523,list_pa,2021.1.4,60.803949826908905,
,,,0,0,0,0,,,,,,,,,,,,,,001,2021_May_04_1523,list_pa,2021.1.4,60.803949826908905,
sounds/droite.ogg,0.7,,1,0,1,0,0,0,0,34,,,,,130.09930569998832,None,,,,001,2021_May_04_1523,list_pa,2021.1.4,60.803949826908905,
sounds/gauche.ogg,0.7,,1,0,1,0,0,1,1,6,,,,,131.60016089999553,None,,,,001,2021_May_04_1523,list_pa,2021.1.4,60.803949826908905,
sounds/gauche.ogg,0.7,,1,0,1,0,0,2,2,8,,,,,133.09989639998966,132.41501609999978,,,,001,2021_May_04_1523,list_pa,2021.1.4,60.803949826908905,
sounds/gauche.ogg,0.7,,1,0,1,0,0,3,3,22,,,,,134.60080229999002,133.91627969998808,,,,001,2021_May_04_1523,list_pa,2021.1.4,60.803949826908905,
sounds/droite.ogg,0.7,,1,0,1,0,0,4,4,26,,,,,136.10039709998964,None,,,,001,2021_May_04_1523,list_pa,2021.1.4,60.803949826908905,
sounds/gauche.ogg,0.7,,1,0,1,0,0,5,5,5,,,,,137.60107219999335,136.91677839998738,,,,001,2021_May_04_1523,list_pa,2021.1.4,60.803949826908905,
sounds/gauche.ogg,0.7,,1,0,1,0,0,6,6,3,,,,,139.10102519999927,138.41647129999183,,,,001,2021_May_04_1523,list_pa,2021.1.4,60.803949826908905,
sounds/droite.ogg,0.7,,1,0,1,0,0,7,7,36,,,,,140.60350819998857,139.91689379999298,,,,001,2021_May_04_1523,list_pa,2021.1.4,60.803949826908905,
sounds/droite.ogg,0.7,,1,0,1,0,0,8,8,38,,,,,142.1185341999968,None,,,,001,2021_May_04_1523,list_pa,2021.1.4,60.803949826908905,
sounds/gauche.ogg,0.7,,1,0,1,0,0,9,9,10,,,,,143.61887789999454,142.9337683999911,,,,001,2021_May_04_1523,list_pa,2021.1.4,60.803949826908905,
sounds/droite.ogg,0.7,,1,0,1,0,0,10,10,49,,,,,145.1189293999938,144.4344107999932,,,,001,2021_May_04_1523,list_pa,2021.1.4,60.803949826908905,
sounds/droite.ogg,0.7,,1,0,1,0,0,11,11,48,,,,,146.61938349998817,None,,,,001,2021_May_04_1523,list_pa,2021.1.4,60.803949826908905,
sounds/droite.ogg,0.7,,1,0,1,0,0,12,12,27,,,,,148.11934959999198,147.43464889998722,,,,001,2021_May_04_1523,list_pa,2021.1.4,60.803949826908905,
sounds/gauche.ogg,0.7,,1,0,1,0,0,13,13,23,,,,,149.61974099998915,148.935024099992,,,,001,2021_May_04_1523,list_pa,2021.1.4,60.803949826908905,
sounds/droite.ogg,0.7,,1,0,1,0,0,14,14,39,,,,,151.12005059998918,None,,,,001,2021_May_04_1523,list_pa,2021.1.4,60.803949826908905,
sounds/gauche.ogg,0.7,,1,0,1,0,0,15,15,2,,,,,152.6207639999935,151.93582679999236,,,,001,2021_May_04_1523,list_pa,2021.1.4,60.803949826908905,
sounds/droite.ogg,0.7,,1,0,1,0,0,16,16,32,,,,,154.12076859999942,153.43570219998946,,,,001,2021_May_04_1523,list_pa,2021.1.4,60.803949826908905,
sounds/gauche.ogg,0.7,,1,0,1,0,0,17,17,0,,,,,155.62144179998867,154.93648369998846,,,,001,2021_May_04_1523,list_pa,2021.1.4,60.803949826908905,
sounds/gauche.ogg,0.7,,1,0,1,0,0,18,18,19,,,,,157.12176609999878,156.4366091999982,,,,001,2021_May_04_1523,list_pa,2021.1.4,60.803949826908905,
sounds/gauche.ogg,0.7,,1,0,1,0,0,19,19,4,,,,,158.62191989999118,157.93713439999556,,,,001,2021_May_04_1523,list_pa,2021.1.4,60.803949826908905,
sounds/gauche.ogg,0.7,,1,0,1,0,0,20,20,11,,,,,160.12239829999598,159.43748489998688,,,,001,2021_May_04_1523,list_pa,2021.1.4,60.803949826908905,
sounds/droite.ogg,0.7,,1,0,1,0,0,21,21,29,,,,,161.6230420999942,160.9372696999926,,,,001,2021_May_04_1523,list_pa,2021.1.4,60.803949826908905,
sounds/droite.ogg,0.7,,1,0,1,0,0,22,22,45,,,,,163.1230276999864,None,,,,001,2021_May_04_1523,list_pa,2021.1.4,60.803949826908905,
sounds/gauche.ogg,0.7,,1,0,1,0,0,23,23,9,,,,,164.62325919998838,163.93821609999577,,,,001,2021_May_04_1523,list_pa,2021.1.4,60.803949826908905,
sounds/droite.ogg,0.7,,1,0,1,0,0,24,24,40,,,,,166.1235734999951,165.43873959999473,,,,001,2021_May_04_1523,list_pa,2021.1.4,60.803949826908905,
sounds/droite.ogg,0.7,,1,0,1,0,0,25,25,28,,,,,167.62345519999653,None,,,,001,2021_May_04_1523,list_pa,2021.1.4,60.803949826908905,
sounds/gauche.ogg,0.7,,1,0,1,0,0,26,26,12,,,,,169.12461519999633,168.438877099994,,,,001,2021_May_04_1523,list_pa,2021.1.4,60.803949826908905,
sounds/droite.ogg,0.7,,1,0,1,0,0,27,27,46,,,,,170.6236356999885,169.93937049999658,,,,001,2021_May_04_1523,list_pa,2021.1.4,60.803949826908905,
sounds/droite.ogg,0.7,,1,0,1,0,0,28,28,43,,,,,172.12481799999804,None,,,,001,2021_May_04_1523,list_pa,2021.1.4,60.803949826908905,
sounds/droite.ogg,0.7,,1,0,1,0,0,29,29,42,,,,,173.62481649998662,172.9399362999975,,,,001,2021_May_04_1523,list_pa,2021.1.4,60.803949826908905,
sounds/gauche.ogg,0.7,,1,0,1,0,0,30,30,18,,,,,175.12543599998898,174.44031149998773,,,,001,2021_May_04_1523,list_pa,2021.1.4,60.803949826908905,
sounds/gauche.ogg,0.7,,1,0,1,0,0,31,31,21,,,,,176.62654269999038,175.94057579999208,,,,001,2021_May_04_1523,list_pa,2021.1.4,60.803949826908905,
sounds/gauche.ogg,0.7,,1,0,1,0,0,32,32,1,,,,,178.14273279998596,177.45747259999916,,,,001,2021_May_04_1523,list_pa,2021.1.4,60.803949826908905,
sounds/gauche.ogg,0.7,,1,0,1,0,0,33,33,17,,,,,179.64251819999626,178.95833579999453,,,,001,2021_May_04_1523,list_pa,2021.1.4,60.803949826908905,
sounds/droite.ogg,0.7,,1,0,1,0,0,34,34,25,,,,,181.14320349999034,180.45876709998993,,,,001,2021_May_04_1523,list_pa,2021.1.4,60.803949826908905,
sounds/gauche.ogg,0.7,,1,0,1,0,0,35,35,24,,,,,182.6435870000001,None,,,,001,2021_May_04_1523,list_pa,2021.1.4,60.803949826908905,
sounds/gauche.ogg,0.7,,1,0,1,0,0,36,36,14,,,,,184.14385239999828,183.45838599999843,,,,001,2021_May_04_1523,list_pa,2021.1.4,60.803949826908905,
sounds/gauche.ogg,0.7,,1,0,1,0,0,37,37,16,,,,,185.64415549999248,184.95966559999215,,,,001,2021_May_04_1523,list_pa,2021.1.4,60.803949826908905,
sounds/gauche.ogg,0.7,,1,0,1,0,0,38,38,20,,,,,187.14443449999234,186.45969419999165,,,,001,2021_May_04_1523,list_pa,2021.1.4,60.803949826908905,
sounds/droite.ogg,0.7,,1,0,1,0,0,39,39,47,,,,,188.64440919998887,187.96032809998724,,,,001,2021_May_04_1523,list_pa,2021.1.4,60.803949826908905,
sounds/droite.ogg,0.7,,1,0,1,0,0,40,40,41,,,,,190.14507749999902,189.46022099998663,,,,001,2021_May_04_1523,list_pa,2021.1.4,60.803949826908905,
sounds/gauche.ogg,0.7,,1,0,1,0,0,41,41,13,,,,,191.6458584999942,190.96019410000008,,,,001,2021_May_04_1523,list_pa,2021.1.4,60.803949826908905,
sounds/droite.ogg,0.7,,1,0,1,0,0,42,42,35,,,,,193.14587460000038,192.46061869998812,,,,001,2021_May_04_1523,list_pa,2021.1.4,60.803949826908905,
sounds/droite.ogg,0.7,,1,0,1,0,0,43,43,44,,,,,194.64649689999496,193.96064299999853,,,,001,2021_May_04_1523,list_pa,2021.1.4,60.803949826908905,
sounds/droite.ogg,0.7,,1,0,1,0,0,44,44,31,,,,,196.14592789999878,195.46084869999322,,,,001,2021_May_04_1523,list_pa,2021.1.4,60.803949826908905,
sounds/gauche.ogg,0.7,,1,0,1,0,0,45,45,7,,,,,197.64735549999895,196.96121129998937,,,,001,2021_May_04_1523,list_pa,2021.1.4,60.803949826908905,
sounds/droite.ogg,0.7,,1,0,1,0,0,46,46,30,,,,,199.14716959999495,198.46157929999754,,,,001,2021_May_04_1523,list_pa,2021.1.4,60.803949826908905,
sounds/droite.ogg,0.7,,1,0,1,0,0,47,47,33,,,,,200.64740659999515,None,,,,001,2021_May_04_1523,list_pa,2021.1.4,60.803949826908905,
sounds/droite.ogg,0.7,,1,0,1,0,0,48,48,37,,,,,202.14763249999814,201.46191319999343,,,,001,2021_May_04_1523,list_pa,2021.1.4,60.803949826908905,
sounds/gauche.ogg,0.7,,1,0,1,0,0,49,49,15,,,,,203.6473628999971,202.9626763999986,,,,001,2021_May_04_1523,list_pa,2021.1.4,60.803949826908905,
,,30,1,0,1,0,,,,,0,0,0,0,,,204.4793525999994,None,,001,2021_May_04_1523,list_pa,2021.1.4,60.803949826908905,
,,29,1,0,1,0,,,,,0,1,1,1,,,205.480172399999,None,,001,2021_May_04_1523,list_pa,2021.1.4,60.803949826908905,
,,28,1,0,1,0,,,,,0,2,2,2,,,206.48044089999166,None,,001,2021_May_04_1523,list_pa,2021.1.4,60.803949826908905,
,,27,1,0,1,0,,,,,0,3,3,3,,,207.48034409999673,None,,001,2021_May_04_1523,list_pa,2021.1.4,60.803949826908905,
,,26,1,0,1,0,,,,,0,4,4,4,,,208.48021899999003,None,,001,2021_May_04_1523,list_pa,2021.1.4,60.803949826908905,
,,25,1,0,1,0,,,,,0,5,5,5,,,209.4808636999951,None,,001,2021_May_04_1523,list_pa,2021.1.4,60.803949826908905,
,,24,1,0,1,0,,,,,0,6,6,6,,,210.48067009999068,None,,001,2021_May_04_1523,list_pa,2021.1.4,60.803949826908905,
,,23,1,0,1,0,,,,,0,7,7,7,,,211.48107319998962,None,,001,2021_May_04_1523,list_pa,2021.1.4,60.803949826908905,
,,22,1,0,1,0,,,,,0,8,8,8,,,212.481039899998,None,,001,2021_May_04_1523,list_pa,2021.1.4,60.803949826908905,
,,21,1,0,1,0,,,,,0,9,9,9,,,213.48114679999708,None,,001,2021_May_04_1523,list_pa,2021.1.4,60.803949826908905,
,,20,1,0,1,0,,,,,0,10,10,10,,,214.4811924999958,None,,001,2021_May_04_1523,list_pa,2021.1.4,60.803949826908905,
,,19,1,0,1,0,,,,,0,11,11,11,,,215.481492299994,None,,001,2021_May_04_1523,list_pa,2021.1.4,60.803949826908905,
,,18,1,0,1,0,,,,,0,12,12,12,,,216.48176239999884,None,,001,2021_May_04_1523,list_pa,2021.1.4,60.803949826908905,
,,17,1,0,1,0,,,,,0,13,13,13,,,217.48201109998627,None,,001,2021_May_04_1523,list_pa,2021.1.4,60.803949826908905,
,,16,1,0,1,0,,,,,0,14,14,14,,,218.4817342999886,None,,001,2021_May_04_1523,list_pa,2021.1.4,60.803949826908905,
,,15,1,0,1,0,,,,,0,15,15,15,,,219.48230489999696,None,,001,2021_May_04_1523,list_pa,2021.1.4,60.803949826908905,
,,14,1,0,1,0,,,,,0,16,16,16,,,220.46589239999594,None,,001,2021_May_04_1523,list_pa,2021.1.4,60.803949826908905,
,,13,1,0,1,0,,,,,0,17,17,17,,,221.46645619999617,None,,001,2021_May_04_1523,list_pa,2021.1.4,60.803949826908905,
,,12,1,0,1,0,,,,,0,18,18,18,,,222.46689479998895,None,,001,2021_May_04_1523,list_pa,2021.1.4,60.803949826908905,
,,11,1,0,1,0,,,,,0,19,19,19,,,223.46694229998684,None,,001,2021_May_04_1523,list_pa,2021.1.4,60.803949826908905,
,,10,1,0,1,0,,,,,0,20,20,20,,,224.46706129999075,None,,001,2021_May_04_1523,list_pa,2021.1.4,60.803949826908905,
,,9,1,0,1,0,,,,,0,21,21,21,,,225.46730299999763,None,,001,2021_May_04_1523,list_pa,2021.1.4,60.803949826908905,
,,8,1,0,1,0,,,,,0,22,22,22,,,226.46635089999472,None,,001,2021_May_04_1523,list_pa,2021.1.4,60.803949826908905,
,,7,1,0,1,0,,,,,0,23,23,23,,,227.46751219998987,None,,001,2021_May_04_1523,list_pa,2021.1.4,60.803949826908905,
,,6,1,0,1,0,,,,,0,24,24,24,,,228.46931929999846,None,,001,2021_May_04_1523,list_pa,2021.1.4,60.803949826908905,
,,5,1,0,1,0,,,,,0,25,25,25,,,229.46814889999223,None,,001,2021_May_04_1523,list_pa,2021.1.4,60.803949826908905,
,,4,1,0,1,0,,,,,0,26,26,26,,,230.4691935999872,None,,001,2021_May_04_1523,list_pa,2021.1.4,60.803949826908905,
,,3,1,0,1,0,,,,,0,27,27,27,,,231.46820189998834,None,,001,2021_May_04_1523,list_pa,2021.1.4,60.803949826908905,
,,2,1,0,1,0,,,,,0,28,28,28,,,232.46833259999403,None,,001,2021_May_04_1523,list_pa,2021.1.4,60.803949826908905,
,,1,1,0,1,0,,,,,0,29,29,29,,,233.46913789999962,None,,001,2021_May_04_1523,list_pa,2021.1.4,60.803949826908905,
,,0,1,0,1,0,,,,,0,30,30,30,,,234.46913619998668,None,,001,2021_May_04_1523,list_pa,2021.1.4,60.803949826908905,
,,,1,0,1,0,,,,,,,,,,,,,,001,2021_May_04_1523,list_pa,2021.1.4,60.803949826908905,
sounds/gauche.ogg,0.7,,2,0,2,0,0,0,0,4,,,,,236.18806819999153,None,,,,001,2021_May_04_1523,list_pa,2021.1.4,60.803949826908905,
sounds/droite.ogg,0.7,,2,0,2,0,0,1,1,41,,,,,237.68832899999833,237.00245919999725,,,,001,2021_May_04_1523,list_pa,2021.1.4,60.803949826908905,
sounds/gauche.ogg,0.7,,2,0,2,0,0,2,2,1,,,,,239.18819879999646,238.50228969998716,,,,001,2021_May_04_1523,list_pa,2021.1.4,60.803949826908905,
sounds/droite.ogg,0.7,,2,0,2,0,0,3,3,40,,,,,240.6881414999967,None,,,,001,2021_May_04_1523,list_pa,2021.1.4,60.803949826908905,
sounds/gauche.ogg,0.7,,2,0,2,0,0,4,4,18,,,,,242.18880459999636,241.50358599999163,,,,001,2021_May_04_1523,list_pa,2021.1.4,60.803949826908905,
sounds/droite.ogg,0.7,,2,0,2,0,0,5,5,36,,,,,243.68909679999487,243.00340799998958,,,,001,2021_May_04_1523,list_pa,2021.1.4,60.803949826908905,
sounds/gauche.ogg,0.7,,2,0,2,0,0,6,6,2,,,,,245.18966719998716,None,,,,001,2021_May_04_1523,list_pa,2021.1.4,60.803949826908905,
sounds/gauche.ogg,0.7,,2,0,2,0,0,7,7,0,,,,,246.6899724999981,246.0048201999889,,,,001,2021_May_04_1523,list_pa,2021.1.4,60.803949826908905,
sounds/gauche.ogg,0.7,,2,0,2,0,0,8,8,22,,,,,248.18988659999886,247.50512999999046,,,,001,2021_May_04_1523,list_pa,2021.1.4,60.803949826908905,
sounds/droite.ogg,0.7,,2,0,2,0,0,9,9,30,,,,,249.6903485999952,249.00544329998957,,,,001,2021_May_04_1523,list_pa,2021.1.4,60.803949826908905,
sounds/droite.ogg,0.7,,2,0,2,0,0,10,10,46,,,,,251.1913667999921,250.50575599999866,,,,001,2021_May_04_1523,list_pa,2021.1.4,60.803949826908905,
sounds/gauche.ogg,0.7,,2,0,2,0,0,11,11,11,,,,,252.6904037999935,252.00605039999937,,,,001,2021_May_04_1523,list_pa,2021.1.4,60.803949826908905,
sounds/gauche.ogg,0.7,,2,0,2,0,0,12,12,10,,,,,254.19122639999986,253.5060475999926,,,,001,2021_May_04_1523,list_pa,2021.1.4,60.803949826908905,
sounds/gauche.ogg,0.7,,2,0,2,0,0,13,13,20,,,,,255.6921879999878,255.0065661999979,,,,001,2021_May_04_1523,list_pa,2021.1.4,60.803949826908905,
sounds/gauche.ogg,0.7,,2,0,2,0,0,14,14,13,,,,,257.19178079998676,None,,,,001,2021_May_04_1523,list_pa,2021.1.4,60.803949826908905,
sounds/droite.ogg,0.7,,2,0,2,0,0,15,15,47,,,,,258.6922390999986,258.0074054999859,,,,001,2021_May_04_1523,list_pa,2021.1.4,60.803949826908905,
sounds/droite.ogg,0.7,,2,0,2,0,0,16,16,34,,,,,260.1917918999985,259.5076032999932,,,,001,2021_May_04_1523,list_pa,2021.1.4,60.803949826908905,
sounds/gauche.ogg,0.7,,2,0,2,0,0,17,17,6,,,,,261.6929392999897,None,,,,001,2021_May_04_1523,list_pa,2021.1.4,60.803949826908905,
sounds/droite.ogg,0.7,,2,0,2,0,0,18,18,42,,,,,263.19339589998856,262.5078775000002,,,,001,2021_May_04_1523,list_pa,2021.1.4,60.803949826908905,
sounds/gauche.ogg,0.7,,2,0,2,0,0,19,19,23,,,,,264.69431389999374,264.00837379999575,,,,001,2021_May_04_1523,list_pa,2021.1.4,60.803949826908905,
sounds/gauche.ogg,0.7,,2,0,2,0,0,20,20,16,,,,,266.19351769999923,265.50867499999003,,,,001,2021_May_04_1523,list_pa,2021.1.4,60.803949826908905,
sounds/gauche.ogg,0.7,,2,0,2,0,0,21,21,24,,,,,267.6946696999963,267.00912589998916,,,,001,2021_May_04_1523,list_pa,2021.1.4,60.803949826908905,
sounds/gauche.ogg,0.7,,2,0,2,0,0,22,22,17,,,,,269.19232219999105,268.5100251999975,,,,001,2021_May_04_1523,list_pa,2021.1.4,60.803949826908905,
sounds/droite.ogg,0.7,,2,0,2,0,0,23,23,43,,,,,270.6948504999906,270.00979839998763,,,,001,2021_May_04_1523,list_pa,2021.1.4,60.803949826908905,
sounds/gauche.ogg,0.7,,2,0,2,0,0,24,24,14,,,,,272.1947573999947,271.5103247999941,,,,001,2021_May_04_1523,list_pa,2021.1.4,60.803949826908905,
sounds/gauche.ogg,0.7,,2,0,2,0,0,25,25,21,,,,,273.6957027999903,None,,,,001,2021_May_04_1523,list_pa,2021.1.4,60.803949826908905,
sounds/droite.ogg,0.7,,2,0,2,0,0,26,26,25,,,,,275.19627569998704,274.5096163999988,,,,001,2021_May_04_1523,list_pa,2021.1.4,60.803949826908905,
sounds/droite.ogg,0.7,,2,0,2,0,0,27,27,48,,,,,276.69716199999823,276.0106717999879,,,,001,2021_May_04_1523,list_pa,2021.1.4,60.803949826908905,
sounds/droite.ogg,0.7,,2,0,2,0,0,28,28,28,,,,,278.19641379999086,277.5110921999876,,,,001,2021_May_04_1523,list_pa,2021.1.4,60.803949826908905,
sounds/gauche.ogg,0.7,,2,0,2,0,0,29,29,19,,,,,279.69758569999397,None,,,,001,2021_May_04_1523,list_pa,2021.1.4,60.803949826908905,
sounds/gauche.ogg,0.7,,2,0,2,0,0,30,30,8,,,,,281.1975240999906,280.51147549999587,,,,001,2021_May_04_1523,list_pa,2021.1.4,60.803949826908905,
sounds/droite.ogg,0.7,,2,0,2,0,0,31,31,32,,,,,282.6970114999873,282.011714399996,,,,001,2021_May_04_1523,list_pa,2021.1.4,60.803949826908905,
sounds/droite.ogg,0.7,,2,0,2,0,0,32,32,39,,,,,284.19735379998895,283.5116813999921,,,,001,2021_May_04_1523,list_pa,2021.1.4,60.803949826908905,
sounds/droite.ogg,0.7,,2,0,2,0,0,33,33,35,,,,,285.6975802999965,285.01290109999536,,,,001,2021_May_04_1523,list_pa,2021.1.4,60.803949826908905,
sounds/gauche.ogg,0.7,,2,0,2,0,0,34,34,3,,,,,287.1979078999881,286.51325609999185,,,,001,2021_May_04_1523,list_pa,2021.1.4,60.803949826908905,
sounds/droite.ogg,0.7,,2,0,2,0,0,35,35,27,,,,,288.69852009999306,288.01201109999965,,,,001,2021_May_04_1523,list_pa,2021.1.4,60.803949826908905,
sounds/gauche.ogg,0.7,,2,0,2,0,0,36,36,12,,,,,290.215563899999,None,,,,001,2021_May_04_1523,list_pa,2021.1.4,60.803949826908905,
sounds/droite.ogg,0.7,,2,0,2,0,0,37,37,37,,,,,291.7158533999915,291.02985359999,,,,001,2021_May_04_1523,list_pa,2021.1.4,60.803949826908905,
sounds/droite.ogg,0.7,,2,0,2,0,0,38,38,33,,,,,293.2327243999913,None,,,,001,2021_May_04_1523,list_pa,2021.1.4,60.803949826908905,
sounds/droite.ogg,0.7,,2,0,2,0,0,39,39,26,,,,,294.7329116999914,294.046992699994,,,,001,2021_May_04_1523,list_pa,2021.1.4,60.803949826908905,
sounds/droite.ogg,0.7,,2,0,2,0,0,40,40,49,,,,,296.21724469999174,None,,,,001,2021_May_04_1523,list_pa,2021.1.4,60.803949826908905,
sounds/droite.ogg,0.7,,2,0,2,0,0,41,41,31,,,,,297.71756019999304,297.0318513999955,,,,001,2021_May_04_1523,list_pa,2021.1.4,60.803949826908905,
sounds/droite.ogg,0.7,,2,0,2,0,0,42,42,29,,,,,299.2174730999992,298.5315978999861,,,,001,2021_May_04_1523,list_pa,2021.1.4,60.803949826908905,
sounds/gauche.ogg,0.7,,2,0,2,0,0,43,43,15,,,,,300.7175205999971,300.0320766999939,,,,001,2021_May_04_1523,list_pa,2021.1.4,60.803949826908905,
sounds/droite.ogg,0.7,,2,0,2,0,0,44,44,38,,,,,302.21816909998745,301.5324139999866,,,,001,2021_May_04_1523,list_pa,2021.1.4,60.803949826908905,
sounds/droite.ogg,0.7,,2,0,2,0,0,45,45,45,,,,,303.7177611999956,303.03311209999083,,,,001,2021_May_04_1523,list_pa,2021.1.4,60.803949826908905,
sounds/gauche.ogg,0.7,,2,0,2,0,0,46,46,7,,,,,305.2180137999982,304.5332136999932,,,,001,2021_May_04_1523,list_pa,2021.1.4,60.803949826908905,
sounds/gauche.ogg,0.7,,2,0,2,0,0,47,47,9,,,,,306.7185622999983,306.0337751999905,,,,001,2021_May_04_1523,list_pa,2021.1.4,60.803949826908905,
sounds/gauche.ogg,0.7,,2,0,2,0,0,48,48,5,,,,,308.2196474999961,307.5339702999918,,,,001,2021_May_04_1523,list_pa,2021.1.4,60.803949826908905,
sounds/droite.ogg,0.7,,2,0,2,0,0,49,49,44,,,,,309.71877259999894,309.0344900999917,,,,001,2021_May_04_1523,list_pa,2021.1.4,60.803949826908905,
,,30,2,0,2,0,,,,,0,0,0,0,,,310.5679369999998,None,,001,2021_May_04_1523,list_pa,2021.1.4,60.803949826908905,
,,29,2,0,2,0,,,,,0,1,1,1,,,311.5512769999914,None,,001,2021_May_04_1523,list_pa,2021.1.4,60.803949826908905,
,,28,2,0,2,0,,,,,0,2,2,2,,,312.551381199999,None,,001,2021_May_04_1523,list_pa,2021.1.4,60.803949826908905,
,,27,2,0,2,0,,,,,0,3,3,3,,,313.5515088999964,None,,001,2021_May_04_1523,list_pa,2021.1.4,60.803949826908905,
,,26,2,0,2,0,,,,,0,4,4,4,,,314.5516626999888,None,,001,2021_May_04_1523,list_pa,2021.1.4,60.803949826908905,
,,25,2,0,2,0,,,,,0,5,5,5,,,315.55256919999374,None,,001,2021_May_04_1523,list_pa,2021.1.4,60.803949826908905,
,,24,2,0,2,0,,,,,0,6,6,6,,,316.55240219998814,None,,001,2021_May_04_1523,list_pa,2021.1.4,60.803949826908905,
,,23,2,0,2,0,,,,,0,7,7,7,,,317.55281779999495,None,,001,2021_May_04_1523,list_pa,2021.1.4,60.803949826908905,
,,22,2,0,2,0,,,,,0,8,8,8,,,318.55241509999905,None,,001,2021_May_04_1523,list_pa,2021.1.4,60.803949826908905,
,,21,2,0,2,0,,,,,0,9,9,9,,,319.55274209998606,None,,001,2021_May_04_1523,list_pa,2021.1.4,60.803949826908905,
,,20,2,0,2,0,,,,,0,10,10,10,,,320.5363897999923,None,,001,2021_May_04_1523,list_pa,2021.1.4,60.803949826908905,
,,19,2,0,2,0,,,,,0,11,11,11,,,321.5361122999893,None,,001,2021_May_04_1523,list_pa,2021.1.4,60.803949826908905,
,,18,2,0,2,0,,,,,0,12,12,12,,,322.553934999989,None,,001,2021_May_04_1523,list_pa,2021.1.4,60.803949826908905,
,,17,2,0,2,0,,,,,0,13,13,13,,,323.55383239999355,None,,001,2021_May_04_1523,list_pa,2021.1.4,60.803949826908905,
,,16,2,0,2,0,,,,,0,14,14,14,,,324.5538932999916,None,,001,2021_May_04_1523,list_pa,2021.1.4,60.803949826908905,
,,15,2,0,2,0,,,,,0,15,15,15,,,325.55421989999013,None,,001,2021_May_04_1523,list_pa,2021.1.4,60.803949826908905,
,,14,2,0,2,0,,,,,0,16,16,16,,,326.5545185999945,None,,001,2021_May_04_1523,list_pa,2021.1.4,60.803949826908905,
,,13,2,0,2,0,,,,,0,17,17,17,,,327.5376983999886,None,,001,2021_May_04_1523,list_pa,2021.1.4,60.803949826908905,
,,12,2,0,2,0,,,,,0,18,18,18,,,328.5382982999872,None,,001,2021_May_04_1523,list_pa,2021.1.4,60.803949826908905,
,,11,2,0,2,0,,,,,0,19,19,19,,,329.5383151999995,None,,001,2021_May_04_1523,list_pa,2021.1.4,60.803949826908905,
,,10,2,0,2,0,,,,,0,20,20,20,,,330.5386470999947,None,,001,2021_May_04_1523,list_pa,2021.1.4,60.803949826908905,
,,9,2,0,2,0,,,,,0,21,21,21,,,331.53885819998686,None,,001,2021_May_04_1523,list_pa,2021.1.4,60.803949826908905,
,,8,2,0,2,0,,,,,0,22,22,22,,,332.53898719999415,None,,001,2021_May_04_1523,list_pa,2021.1.4,60.803949826908905,
,,7,2,0,2,0,,,,,0,23,23,23,,,333.5393364999909,None,,001,2021_May_04_1523,list_pa,2021.1.4,60.803949826908905,
,,6,2,0,2,0,,,,,0,24,24,24,,,334.5398121999897,None,,001,2021_May_04_1523,list_pa,2021.1.4,60.803949826908905,
,,5,2,0,2,0,,,,,0,25,25,25,,,335.5400571999926,None,,001,2021_May_04_1523,list_pa,2021.1.4,60.803949826908905,
,,4,2,0,2,0,,,,,0,26,26,26,,,336.5404847999889,None,,001,2021_May_04_1523,list_pa,2021.1.4,60.803949826908905,
,,3,2,0,2,0,,,,,0,27,27,27,,,337.54028729999845,None,,001,2021_May_04_1523,list_pa,2021.1.4,60.803949826908905,
,,2,2,0,2,0,,,,,0,28,28,28,,,338.5403368999978,None,,001,2021_May_04_1523,list_pa,2021.1.4,60.803949826908905,
,,1,2,0,2,0,,,,,0,29,29,29,,,339.5405305999884,None,,001,2021_May_04_1523,list_pa,2021.1.4,60.803949826908905,
,,0,2,0,2,0,,,,,0,30,30,30,,,340.540791899999,None,,001,2021_May_04_1523,list_pa,2021.1.4,60.803949826908905,
,,,2,0,2,0,,,,,,,,,,,,,,001,2021_May_04_1523,list_pa,2021.1.4,60.803949826908905,
sounds/gauche.ogg,0.7,,3,0,3,0,0,0,0,10,,,,,342.2436676999947,None,,,,001,2021_May_04_1523,list_pa,2021.1.4,60.803949826908905,
sounds/gauche.ogg,0.7,,3,0,3,0,0,1,1,19,,,,,343.75955599999145,None,,,,001,2021_May_04_1523,list_pa,2021.1.4,60.803949826908905,
sounds/droite.ogg,0.7,,3,0,3,0,0,2,2,38,,,,,345.259765499986,344.57491989999835,,,,001,2021_May_04_1523,list_pa,2021.1.4,60.803949826908905,
sounds/droite.ogg,0.7,,3,0,3,0,0,3,3,27,,,,,346.7599241999866,346.07538839998597,,,,001,2021_May_04_1523,list_pa,2021.1.4,60.803949826908905,
sounds/gauche.ogg,0.7,,3,0,3,0,0,4,4,17,,,,,348.26045509999824,347.5750632999989,,,,001,2021_May_04_1523,list_pa,2021.1.4,60.803949826908905,
sounds/gauche.ogg,0.7,,3,0,3,0,0,5,5,24,,,,,349.7608856999883,349.07540279999375,,,,001,2021_May_04_1523,list_pa,2021.1.4,60.803949826908905,
sounds/gauche.ogg,0.7,,3,0,3,0,0,6,6,5,,,,,351.2607282999976,None,,,,001,2021_May_04_1523,list_pa,2021.1.4,60.803949826908905,
sounds/droite.ogg,0.7,,3,0,3,0,0,7,7,33,,,,,352.7613945999925,352.0754178999923,,,,001,2021_May_04_1523,list_pa,2021.1.4,60.803949826908905,
sounds/droite.ogg,0.7,,3,0,3,0,0,8,8,28,,,,,354.26220869999236,353.5765462999989,,,,001,2021_May_04_1523,list_pa,2021.1.4,60.803949826908905,
sounds/gauche.ogg,0.7,,3,0,3,0,0,9,9,18,,,,,355.762316799986,None,,,,001,2021_May_04_1523,list_pa,2021.1.4,60.803949826908905,
sounds/droite.ogg,0.7,,3,0,3,0,0,10,10,46,,,,,357.26271439998675,356.57730989999254,,,,001,2021_May_04_1523,list_pa,2021.1.4,60.803949826908905,
sounds/droite.ogg,0.7,,3,0,3,0,0,11,11,26,,,,,358.7629447999949,358.0778670999862,,,,001,2021_May_04_1523,list_pa,2021.1.4,60.803949826908905,
sounds/droite.ogg,0.7,,3,0,3,0,0,12,12,30,,,,,360.2629599999942,359.57716469999286,,,,001,2021_May_04_1523,list_pa,2021.1.4,60.803949826908905,
sounds/gauche.ogg,0.7,,3,0,3,0,0,13,13,9,,,,,361.7634274999888,361.07772259999183,,,,001,2021_May_04_1523,list_pa,2021.1.4,60.803949826908905,
sounds/gauche.ogg,0.7,,3,0,3,0,0,14,14,22,,,,,363.26313470000025,362.5790328999865,,,,001,2021_May_04_1523,list_pa,2021.1.4,60.803949826908905,
sounds/droite.ogg,0.7,,3,0,3,0,0,15,15,32,,,,,364.7639917999928,364.0781697999919,,,,001,2021_May_04_1523,list_pa,2021.1.4,60.803949826908905,
sounds/droite.ogg,0.7,,3,0,3,0,0,16,16,29,,,,,366.2632512999859,365.5788393999974,,,,001,2021_May_04_1523,list_pa,2021.1.4,60.803949826908905,
sounds/gauche.ogg,0.7,,3,0,3,0,0,17,17,1,,,,,367.76237799998637,None,,,,001,2021_May_04_1523,list_pa,2021.1.4,60.803949826908905,
sounds/droite.ogg,0.7,,3,0,3,0,0,18,18,25,,,,,369.26541449999934,368.5624581999873,,,,001,2021_May_04_1523,list_pa,2021.1.4,60.803949826908905,
sounds/droite.ogg,0.7,,3,0,3,0,0,19,19,35,,,,,370.7660101999951,None,,,,001,2021_May_04_1523,list_pa,2021.1.4,60.803949826908905,
sounds/gauche.ogg,0.7,,3,0,3,0,0,20,20,12,,,,,372.26528349999137,371.58004169999913,,,,001,2021_May_04_1523,list_pa,2021.1.4,60.803949826908905,
sounds/gauche.ogg,0.7,,3,0,3,0,0,21,21,2,,,,,373.76597589999585,373.0807732999965,,,,001,2021_May_04_1523,list_pa,2021.1.4,60.803949826908905,
sounds/droite.ogg,0.7,,3,0,3,0,0,22,22,40,,,,,375.26623640000037,374.58097859998816,,,,001,2021_May_04_1523,list_pa,2021.1.4,60.803949826908905,
sounds/droite.ogg,0.7,,3,0,3,0,0,23,23,44,,,,,376.76739619999864,376.08095659999526,,,,001,2021_May_04_1523,list_pa,2021.1.4,60.803949826908905,
sounds/droite.ogg,0.7,,3,0,3,0,0,24,24,39,,,,,378.2663515999899,377.5814492999925,,,,001,2021_May_04_1523,list_pa,2021.1.4,60.803949826908905,
sounds/droite.ogg,0.7,,3,0,3,0,0,25,25,36,,,,,379.7670673999979,379.08159679999517,,,,001,2021_May_04_1523,list_pa,2021.1.4,60.803949826908905,
sounds/droite.ogg,0.7,,3,0,3,0,0,26,26,37,,,,,381.2673136999962,380.58216459999676,,,,001,2021_May_04_1523,list_pa,2021.1.4,60.803949826908905,
sounds/gauche.ogg,0.7,,3,0,3,0,0,27,27,20,,,,,382.76815879999924,382.08302699998603,,,,001,2021_May_04_1523,list_pa,2021.1.4,60.803949826908905,
sounds/gauche.ogg,0.7,,3,0,3,0,0,28,28,4,,,,,384.2683720999936,383.582124499997,,,,001,2021_May_04_1523,list_pa,2021.1.4,60.803949826908905,
sounds/gauche.ogg,0.7,,3,0,3,0,0,29,29,21,,,,,385.7681730999917,385.0829079999967,,,,001,2021_May_04_1523,list_pa,2021.1.4,60.803949826908905,
sounds/gauche.ogg,0.7,,3,0,3,0,0,30,30,7,,,,,387.2683388999882,386.5823334999877,,,,001,2021_May_04_1523,list_pa,2021.1.4,60.803949826908905,
sounds/gauche.ogg,0.7,,3,0,3,0,0,31,31,15,,,,,388.7689274999881,388.08324509998783,,,,001,2021_May_04_1523,list_pa,2021.1.4,60.803949826908905,
sounds/gauche.ogg,0.7,,3,0,3,0,0,32,32,6,,,,,390.26898669998775,None,,,,001,2021_May_04_1523,list_pa,2021.1.4,60.803949826908905,
sounds/gauche.ogg,0.7,,3,0,3,0,0,33,33,0,,,,,391.7691344999927,391.08318699999654,,,,001,2021_May_04_1523,list_pa,2021.1.4,60.803949826908905,
sounds/gauche.ogg,0.7,,3,0,3,0,0,34,34,16,,,,,393.2696631999876,392.5834640999965,,,,001,2021_May_04_1523,list_pa,2021.1.4,60.803949826908905,
sounds/gauche.ogg,0.7,,3,0,3,0,0,35,35,13,,,,,394.77000539998846,None,,,,001,2021_May_04_1523,list_pa,2021.1.4,60.803949826908905,
sounds/gauche.ogg,0.7,,3,0,3,0,0,36,36,8,,,,,396.2699299999964,395.58421389998693,,,,001,2021_May_04_1523,list_pa,2021.1.4,60.803949826908905,
sounds/droite.ogg,0.7,,3,0,3,0,0,37,37,49,,,,,397.77019189999703,397.08554379999987,,,,001,2021_May_04_1523,list_pa,2021.1.4,60.803949826908905,
sounds/droite.ogg,0.7,,3,0,3,0,0,38,38,48,,,,,399.2874712999925,None,,,,001,2021_May_04_1523,list_pa,2021.1.4,60.803949826908905,
sounds/gauche.ogg,0.7,,3,0,3,0,0,39,39,23,,,,,400.78806119998774,400.10309649999544,,,,001,2021_May_04_1523,list_pa,2021.1.4,60.803949826908905,
sounds/droite.ogg,0.7,,3,0,3,0,0,40,40,43,,,,,402.2882663999932,401.6029787999869,,,,001,2021_May_04_1523,list_pa,2021.1.4,60.803949826908905,
sounds/gauche.ogg,0.7,,3,0,3,0,0,41,41,3,,,,,403.7880012999973,403.1035456999962,,,,001,2021_May_04_1523,list_pa,2021.1.4,60.803949826908905,
sounds/droite.ogg,0.7,,3,0,3,0,0,42,42,47,,,,,405.28863989999957,404.60362979999627,,,,001,2021_May_04_1523,list_pa,2021.1.4,60.803949826908905,
sounds/droite.ogg,0.7,,3,0,3,0,0,43,43,41,,,,,406.7889947999953,406.1041650999978,,,,001,2021_May_04_1523,list_pa,2021.1.4,60.803949826908905,
sounds/gauche.ogg,0.7,,3,0,3,0,0,44,44,14,,,,,408.2894606999922,407.60431119998975,,,,001,2021_May_04_1523,list_pa,2021.1.4,60.803949826908905,
sounds/droite.ogg,0.7,,3,0,3,0,0,45,45,31,,,,,409.7892026999922,None,,,,001,2021_May_04_1523,list_pa,2021.1.4,60.803949826908905,
sounds/droite.ogg,0.7,,3,0,3,0,0,46,46,42,,,,,411.28995319998796,410.60469549999107,,,,001,2021_May_04_1523,list_pa,2021.1.4,60.803949826908905,
sounds/droite.ogg,0.7,,3,0,3,0,0,47,47,45,,,,,412.7878141999987,412.1052165999863,,,,001,2021_May_04_1523,list_pa,2021.1.4,60.803949826908905,
sounds/droite.ogg,0.7,,3,0,3,0,0,48,48,34,,,,,414.28994239999304,413.6055195999943,,,,001,2021_May_04_1523,list_pa,2021.1.4,60.803949826908905,
sounds/gauche.ogg,0.7,,3,0,3,0,0,49,49,11,,,,,415.79029899998716,415.10606499999994,,,,001,2021_May_04_1523,list_pa,2021.1.4,60.803949826908905,
,,30,3,0,3,0,,,,,0,0,0,0,,,416.63947129998996,None,,001,2021_May_04_1523,list_pa,2021.1.4,60.803949826908905,
,,29,3,0,3,0,,,,,0,1,1,1,,,417.62160869999207,None,,001,2021_May_04_1523,list_pa,2021.1.4,60.803949826908905,
,,28,3,0,3,0,,,,,0,2,2,2,,,418.62284839998756,None,,001,2021_May_04_1523,list_pa,2021.1.4,60.803949826908905,
,,27,3,0,3,0,,,,,0,3,3,3,,,419.6231136999995,None,,001,2021_May_04_1523,list_pa,2021.1.4,60.803949826908905,
,,26,3,0,3,0,,,,,0,4,4,4,,,420.6244799999986,None,,001,2021_May_04_1523,list_pa,2021.1.4,60.803949826908905,
,,25,3,0,3,0,,,,,0,5,5,5,,,421.62345970000024,None,,001,2021_May_04_1523,list_pa,2021.1.4,60.803949826908905,
,,24,3,0,3,0,,,,,0,6,6,6,,,422.6242591999908,None,,001,2021_May_04_1523,list_pa,2021.1.4,60.803949826908905,
,,23,3,0,3,0,,,,,0,7,7,7,,,423.6241822999873,None,,001,2021_May_04_1523,list_pa,2021.1.4,60.803949826908905,
,,22,3,0,3,0,,,,,0,8,8,8,,,424.6241049999953,None,,001,2021_May_04_1523,list_pa,2021.1.4,60.803949826908905,
,,21,3,0,3,0,,,,,0,9,9,9,,,425.6242987999867,None,,001,2021_May_04_1523,list_pa,2021.1.4,60.803949826908905,
,,20,3,0,3,0,,,,,0,10,10,10,,,426.6251174999925,None,,001,2021_May_04_1523,list_pa,2021.1.4,60.803949826908905,
,,19,3,0,3,0,,,,,0,11,11,11,,,427.6249669999961,None,,001,2021_May_04_1523,list_pa,2021.1.4,60.803949826908905,
,,18,3,0,3,0,,,,,0,12,12,12,,,428.62493489999906,None,,001,2021_May_04_1523,list_pa,2021.1.4,60.803949826908905,
,,17,3,0,3,0,,,,,0,13,13,13,,,429.62519699998666,None,,001,2021_May_04_1523,list_pa,2021.1.4,60.803949826908905,
,,16,3,0,3,0,,,,,0,14,14,14,,,430.6254090000002,None,,001,2021_May_04_1523,list_pa,2021.1.4,60.803949826908905,
,,15,3,0,3,0,,,,,0,15,15,15,,,431.6258719999896,None,,001,2021_May_04_1523,list_pa,2021.1.4,60.803949826908905,
,,14,3,0,3,0,,,,,0,16,16,16,,,432.62603869999293,None,,001,2021_May_04_1523,list_pa,2021.1.4,60.803949826908905,
,,13,3,0,3,0,,,,,0,17,17,17,,,433.61011029999645,None,,001,2021_May_04_1523,list_pa,2021.1.4,60.803949826908905,
,,12,3,0,3,0,,,,,0,18,18,18,,,434.6261102999997,None,,001,2021_May_04_1523,list_pa,2021.1.4,60.803949826908905,
,,11,3,0,3,0,,,,,0,19,19,19,,,435.60999789999914,None,,001,2021_May_04_1523,list_pa,2021.1.4,60.803949826908905,
,,10,3,0,3,0,,,,,0,20,20,20,,,436.61007069998595,None,,001,2021_May_04_1523,list_pa,2021.1.4,60.803949826908905,
,,9,3,0,3,0,,,,,0,21,21,21,,,437.61017059998994,None,,001,2021_May_04_1523,list_pa,2021.1.4,60.803949826908905,
,,8,3,0,3,0,,,,,0,22,22,22,,,438.61070169998857,None,,001,2021_May_04_1523,list_pa,2021.1.4,60.803949826908905,
,,7,3,0,3,0,,,,,0,23,23,23,,,439.61099639999156,None,,001,2021_May_04_1523,list_pa,2021.1.4,60.803949826908905,
,,6,3,0,3,0,,,,,0,24,24,24,,,440.6124484999891,None,,001,2021_May_04_1523,list_pa,2021.1.4,60.803949826908905,
,,5,3,0,3,0,,,,,0,25,25,25,,,441.6109318999952,None,,001,2021_May_04_1523,list_pa,2021.1.4,60.803949826908905,
,,4,3,0,3,0,,,,,0,26,26,26,,,442.61118929999066,None,,001,2021_May_04_1523,list_pa,2021.1.4,60.803949826908905,
,,3,3,0,3,0,,,,,0,27,27,27,,,443.61183289998735,None,,001,2021_May_04_1523,list_pa,2021.1.4,60.803949826908905,
,,2,3,0,3,0,,,,,0,28,28,28,,,444.61165489999985,None,,001,2021_May_04_1523,list_pa,2021.1.4,60.803949826908905,
,,1,3,0,3,0,,,,,0,29,29,29,,,445.61179249999986,None,,001,2021_May_04_1523,list_pa,2021.1.4,60.803949826908905,
,,0,3,0,3,0,,,,,0,30,30,30,,,446.61204429999634,None,,001,2021_May_04_1523,list_pa,2021.1.4,60.803949826908905,
,,,3,0,3,0,,,,,,,,,,,,,,001,2021_May_04_1523,list_pa,2021.1.4,60.803949826908905,
sounds/droite.ogg,0.7,,4,0,4,0,0,0,0,39,,,,,448.3147233999931,None,,,,001,2021_May_04_1523,list_pa,2021.1.4,60.803949826908905,
sounds/droite.ogg,0.7,,4,0,4,0,0,1,1,36,,,,,449.83082699999943,None,,,,001,2021_May_04_1523,list_pa,2021.1.4,60.803949826908905,
sounds/droite.ogg,0.7,,4,0,4,0,0,2,2,32,,,,,451.33152859998665,450.6464239999914,,,,001,2021_May_04_1523,list_pa,2021.1.4,60.803949826908905,
sounds/droite.ogg,0.7,,4,0,4,0,0,3,3,26,,,,,452.8320970999936,452.14658979998785,,,,001,2021_May_04_1523,list_pa,2021.1.4,60.803949826908905,
sounds/droite.ogg,0.7,,4,0,4,0,0,4,4,34,,,,,454.33204669998815,453.64729129998886,,,,001,2021_May_04_1523,list_pa,2021.1.4,60.803949826908905,
sounds/gauche.ogg,0.7,,4,0,4,0,0,5,5,24,,,,,455.8327607999978,455.1470319999935,,,,001,2021_May_04_1523,list_pa,2021.1.4,60.803949826908905,
sounds/gauche.ogg,0.7,,4,0,4,0,0,6,6,18,,,,,457.3325259999998,456.64772949999315,,,,001,2021_May_04_1523,list_pa,2021.1.4,60.803949826908905,
sounds/gauche.ogg,0.7,,4,0,4,0,0,7,7,15,,,,,458.8334350999954,458.146820799986,,,,001,2021_May_04_1523,list_pa,2021.1.4,60.803949826908905,
sounds/droite.ogg,0.7,,4,0,4,0,0,8,8,42,,,,,460.3338106999887,459.64790929999435,,,,001,2021_May_04_1523,list_pa,2021.1.4,60.803949826908905,
sounds/gauche.ogg,0.7,,4,0,4,0,0,9,9,16,,,,,461.83513179999284,461.1477057999873,,,,001,2021_May_04_1523,list_pa,2021.1.4,60.803949826908905,
sounds/droite.ogg,0.7,,4,0,4,0,0,10,10,38,,,,,463.35064069999646,None,,,,001,2021_May_04_1523,list_pa,2021.1.4,60.803949826908905,
sounds/droite.ogg,0.7,,4,0,4,0,0,11,11,47,,,,,464.850942199993,None,,,,001,2021_May_04_1523,list_pa,2021.1.4,60.803949826908905,
sounds/gauche.ogg,0.7,,4,0,4,0,0,12,12,0,,,,,466.3507197999876,465.66617419999966,,,,001,2021_May_04_1523,list_pa,2021.1.4,60.803949826908905,
sounds/gauche.ogg,0.7,,4,0,4,0,0,13,13,11,,,,,467.85130199999696,467.16667209999287,,,,001,2021_May_04_1523,list_pa,2021.1.4,60.803949826908905,
sounds/gauche.ogg,0.7,,4,0,4,0,0,14,14,5,,,,,469.351502799998,468.66690969999763,,,,001,2021_May_04_1523,list_pa,2021.1.4,60.803949826908905,
sounds/gauche.ogg,0.7,,4,0,4,0,0,15,15,9,,,,,470.8520092999985,470.16685919999145,,,,001,2021_May_04_1523,list_pa,2021.1.4,60.803949826908905,
sounds/gauche.ogg,0.7,,4,0,4,0,0,16,16,14,,,,,472.35158259999446,471.66745729999093,,,,001,2021_May_04_1523,list_pa,2021.1.4,60.803949826908905,
sounds/droite.ogg,0.7,,4,0,4,0,0,17,17,28,,,,,473.8528100999989,473.16771169999265,,,,001,2021_May_04_1523,list_pa,2021.1.4,60.803949826908905,
sounds/droite.ogg,0.7,,4,0,4,0,0,18,18,48,,,,,475.3534039999955,474.6679656999913,,,,001,2021_May_04_1523,list_pa,2021.1.4,60.803949826908905,
sounds/gauche.ogg,0.7,,4,0,4,0,0,19,19,23,,,,,476.8532450999934,476.1684951999923,,,,001,2021_May_04_1523,list_pa,2021.1.4,60.803949826908905,
sounds/droite.ogg,0.7,,4,0,4,0,0,20,20,27,,,,,478.3705105999994,None,,,,001,2021_May_04_1523,list_pa,2021.1.4,60.803949826908905,
sounds/gauche.ogg,0.7,,4,0,4,0,0,21,21,8,,,,,479.8704921999903,None,,,,001,2021_May_04_1523,list_pa,2021.1.4,60.803949826908905,
sounds/gauche.ogg,0.7,,4,0,4,0,0,22,22,3,,,,,481.3705086999995,480.68608269999095,,,,001,2021_May_04_1523,list_pa,2021.1.4,60.803949826908905,
sounds/gauche.ogg,0.7,,4,0,4,0,0,23,23,6,,,,,482.87068319998946,482.186395599987,,,,001,2021_May_04_1523,list_pa,2021.1.4,60.803949826908905,
sounds/gauche.ogg,0.7,,4,0,4,0,0,24,24,22,,,,,484.37167029999694,None,,,,001,2021_May_04_1523,list_pa,2021.1.4,60.803949826908905,
sounds/droite.ogg,0.7,,4,0,4,0,0,25,25,37,,,,,485.8717120999951,485.18674059999466,,,,001,2021_May_04_1523,list_pa,2021.1.4,60.803949826908905,
sounds/droite.ogg,0.7,,4,0,4,0,0,26,26,44,,,,,487.37215009999784,486.6871472999919,,,,001,2021_May_04_1523,list_pa,2021.1.4,60.803949826908905,
sounds/droite.ogg,0.7,,4,0,4,0,0,27,27,25,,,,,488.87268319999714,488.1873987999861,,,,001,2021_May_04_1523,list_pa,2021.1.4,60.803949826908905,
sounds/gauche.ogg,0.7,,4,0,4,0,0,28,28,13,,,,,490.3730534999937,489.6874143999885,,,,001,2021_May_04_1523,list_pa,2021.1.4,60.803949826908905,
sounds/droite.ogg,0.7,,4,0,4,0,0,29,29,45,,,,,491.87307259999363,491.1880972999934,,,,001,2021_May_04_1523,list_pa,2021.1.4,60.803949826908905,
sounds/droite.ogg,0.7,,4,0,4,0,0,30,30,46,,,,,493.37317359999145,492.68739079999796,,,,001,2021_May_04_1523,list_pa,2021.1.4,60.803949826908905,
sounds/gauche.ogg,0.7,,4,0,4,0,0,31,31,2,,,,,494.87349799998776,494.1875815999956,,,,001,2021_May_04_1523,list_pa,2021.1.4,60.803949826908905,
sounds/droite.ogg,0.7,,4,0,4,0,0,32,32,49,,,,,496.3739981999985,495.68925239999953,,,,001,2021_May_04_1523,list_pa,2021.1.4,60.803949826908905,
sounds/droite.ogg,0.7,,4,0,4,0,0,33,33,43,,,,,497.87362369999903,497.1901016999909,,,,001,2021_May_04_1523,list_pa,2021.1.4,60.803949826908905,
sounds/droite.ogg,0.7,,4,0,4,0,0,34,34,33,,,,,499.37471129998596,498.6905589999951,,,,001,2021_May_04_1523,list_pa,2021.1.4,60.803949826908905,
sounds/gauche.ogg,0.7,,4,0,4,0,0,35,35,10,,,,,500.8748246999909,None,,,,001,2021_May_04_1523,list_pa,2021.1.4,60.803949826908905,
sounds/gauche.ogg,0.7,,4,0,4,0,0,36,36,12,,,,,502.37595699999804,501.6900629999873,,,,001,2021_May_04_1523,list_pa,2021.1.4,60.803949826908905,
sounds/droite.ogg,0.7,,4,0,4,0,0,37,37,31,,,,,503.875220699994,503.1905826000002,,,,001,2021_May_04_1523,list_pa,2021.1.4,60.803949826908905,
sounds/gauche.ogg,0.7,,4,0,4,0,0,38,38,7,,,,,505.37625739998623,504.6906314999942,,,,001,2021_May_04_1523,list_pa,2021.1.4,60.803949826908905,
sounds/gauche.ogg,0.7,,4,0,4,0,0,39,39,19,,,,,506.8772919999916,506.19101260000025,,,,001,2021_May_04_1523,list_pa,2021.1.4,60.803949826908905,
sounds/droite.ogg,0.7,,4,0,4,0,0,40,40,29,,,,,508.3765344999862,507.6912624999968,,,,001,2021_May_04_1523,list_pa,2021.1.4,60.803949826908905,
sounds/gauche.ogg,0.7,,4,0,4,0,0,41,41,4,,,,,509.8772614999922,509.1915097999881,,,,001,2021_May_04_1523,list_pa,2021.1.4,60.803949826908905,
sounds/droite.ogg,0.7,,4,0,4,0,0,42,42,41,,,,,511.3772566999993,510.6916018999909,,,,001,2021_May_04_1523,list_pa,2021.1.4,60.803949826908905,
sounds/gauche.ogg,0.7,,4,0,4,0,0,43,43,21,,,,,512.8773461999969,512.1917998999998,,,,001,2021_May_04_1523,list_pa,2021.1.4,60.803949826908905,
sounds/gauche.ogg,0.7,,4,0,4,0,0,44,44,1,,,,,514.3781622999974,513.6920585999906,,,,001,2021_May_04_1523,list_pa,2021.1.4,60.803949826908905,
sounds/droite.ogg,0.7,,4,0,4,0,0,45,45,35,,,,,515.8778289999915,515.1925300000003,,,,001,2021_May_04_1523,list_pa,2021.1.4,60.803949826908905,
sounds/gauche.ogg,0.7,,4,0,4,0,0,46,46,17,,,,,517.3781967999981,516.6928431999986,,,,001,2021_May_04_1523,list_pa,2021.1.4,60.803949826908905,
sounds/gauche.ogg,0.7,,4,0,4,0,0,47,47,20,,,,,518.8783424999871,None,,,,001,2021_May_04_1523,list_pa,2021.1.4,60.803949826908905,
sounds/droite.ogg,0.7,,4,0,4,0,0,48,48,40,,,,,520.3791956999936,519.6938007999997,,,,001,2021_May_04_1523,list_pa,2021.1.4,60.803949826908905,
sounds/droite.ogg,0.7,,4,0,4,0,0,49,49,30,,,,,521.8786973999973,521.1940896999877,,,,001,2021_May_04_1523,list_pa,2021.1.4,60.803949826908905,
,,30,4,0,4,0,,,,,0,0,0,0,,,522.7096550999995,None,,001,2021_May_04_1523,list_pa,2021.1.4,60.803949826908905,
,,29,4,0,4,0,,,,,0,1,1,1,,,523.6942682999943,None,,001,2021_May_04_1523,list_pa,2021.1.4,60.803949826908905,
,,28,4,0,4,0,,,,,0,2,2,2,,,524.7113134999963,None,,001,2021_May_04_1523,list_pa,2021.1.4,60.803949826908905,
,,27,4,0,4,0,,,,,0,3,3,3,,,525.7117328999884,None,,001,2021_May_04_1523,list_pa,2021.1.4,60.803949826908905,
,,26,4,0,4,0,,,,,0,4,4,4,,,526.7115189999895,None,,001,2021_May_04_1523,list_pa,2021.1.4,60.803949826908905,
,,25,4,0,4,0,,,,,0,5,5,5,,,527.6899046999897,None,,001,2021_May_04_1523,list_pa,2021.1.4,60.803949826908905,
,,24,4,0,4,0,,,,,0,6,6,6,,,528.7167151999893,None,,001,2021_May_04_1523,list_pa,2021.1.4,60.803949826908905,
,,23,4,0,4,0,,,,,0,7,7,7,,,529.6975586999906,None,,001,2021_May_04_1523,list_pa,2021.1.4,60.803949826908905,
,,22,4,0,4,0,,,,,0,8,8,8,,,530.7008905999974,None,,001,2021_May_04_1523,list_pa,2021.1.4,60.803949826908905,
,,21,4,0,4,0,,,,,0,9,9,9,,,None,None,,001,2021_May_04_1523,list_pa,2021.1.4,60.803949826908905,
,,20,4,0,4,0,,,,,0,10,10,10,,,None,None,,001,2021_May_04_1523,list_pa,2021.1.4,60.803949826908905,
,,19,4,0,4,0,,,,,0,11,11,11,,,None,None,,001,2021_May_04_1523,list_pa,2021.1.4,60.803949826908905,
,,18,4,0,4,0,,,,,0,12,12,12,,,None,None,,001,2021_May_04_1523,list_pa,2021.1.4,60.803949826908905,
,,17,4,0,4,0,,,,,0,13,13,13,,,None,None,,001,2021_May_04_1523,list_pa,2021.1.4,60.803949826908905,
,,16,4,0,4,0,,,,,0,14,14,14,,,None,None,,001,2021_May_04_1523,list_pa,2021.1.4,60.803949826908905,
,,15,4,0,4,0,,,,,0,15,15,15,,,None,None,,001,2021_May_04_1523,list_pa,2021.1.4,60.803949826908905,
,,14,4,0,4,0,,,,,0,16,16,16,,,None,None,,001,2021_May_04_1523,list_pa,2021.1.4,60.803949826908905,
,,13,4,0,4,0,,,,,0,17,17,17,,,None,None,,001,2021_May_04_1523,list_pa,2021.1.4,60.803949826908905,
,,12,4,0,4,0,,,,,0,18,18,18,,,None,None,,001,2021_May_04_1523,list_pa,2021.1.4,60.803949826908905,
,,11,4,0,4,0,,,,,0,19,19,19,,,None,None,,001,2021_May_04_1523,list_pa,2021.1.4,60.803949826908905,
,,10,4,0,4,0,,,,,0,20,20,20,,,None,None,,001,2021_May_04_1523,list_pa,2021.1.4,60.803949826908905,
,,9,4,0,4,0,,,,,0,21,21,21,,,None,None,,001,2021_May_04_1523,list_pa,2021.1.4,60.803949826908905,
,,8,4,0,4,0,,,,,0,22,22,22,,,None,None,,001,2021_May_04_1523,list_pa,2021.1.4,60.803949826908905,
,,7,4,0,4,0,,,,,0,23,23,23,,,None,None,,001,2021_May_04_1523,list_pa,2021.1.4,60.803949826908905,
,,6,4,0,4,0,,,,,0,24,24,24,,,None,None,,001,2021_May_04_1523,list_pa,2021.1.4,60.803949826908905,
,,5,4,0,4,0,,,,,0,25,25,25,,,None,None,,001,2021_May_04_1523,list_pa,2021.1.4,60.803949826908905,
,,4,4,0,4,0,,,,,0,26,26,26,,,None,None,,001,2021_May_04_1523,list_pa,2021.1.4,60.803949826908905,
,,3,4,0,4,0,,,,,0,27,27,27,,,None,None,,001,2021_May_04_1523,list_pa,2021.1.4,60.803949826908905,
,,2,4,0,4,0,,,,,0,28,28,28,,,None,None,,001,2021_May_04_1523,list_pa,2021.1.4,60.803949826908905,
,,1,4,0,4,0,,,,,0,29,29,29,,,None,None,,001,2021_May_04_1523,list_pa,2021.1.4,60.803949826908905,
,,0,4,0,4,0,,,,,0,30,30,30,,,None,None,,001,2021_May_04_1523,list_pa,2021.1.4,60.803949826908905,
,,,4,0,4,0,,,,,,,,,,,,,,001,2021_May_04_1523,list_pa,2021.1.4,60.803949826908905,
