word_stimuli,isi,countdown,trials.thisRepN,trials.thisTrialN,trials.thisN,trials.thisIndex,trial_loop.thisRepN,trial_loop.thisTrialN,trial_loop.thisN,trial_loop.thisIndex,trials_2.thisRepN,trials_2.thisTrialN,trials_2.thisN,trials_2.thisIndex,sound_exposure.started,sound_exposure.stopped,text.started,text.stopped,participant,session,date,expName,psychopyVersion,frameRate,
sounds/droite.ogg,0.7,,0,0,0,0,0,0,0,38,,,,,251.76812952000182,None,,,,001,2021_May_07_1328,list_pa,2021.1.4,59.89017339953057,
sounds/gauche.ogg,0.7,,0,0,0,0,0,1,1,6,,,,,253.2842244200001,252.599006000004,,,,001,2021_May_07_1328,list_pa,2021.1.4,59.89017339953057,
sounds/droite.ogg,0.7,,0,0,0,0,0,2,2,35,,,,,254.78552712000237,254.10004480000498,,,,001,2021_May_07_1328,list_pa,2021.1.4,59.89017339953057,
sounds/droite.ogg,0.7,,0,0,0,0,0,3,3,42,,,,,256.2862155200055,None,,,,001,2021_May_07_1328,list_pa,2021.1.4,59.89017339953057,
sounds/droite.ogg,0.7,,0,0,0,0,0,4,4,40,,,,,257.78569862000586,257.10316470000544,,,,001,2021_May_07_1328,list_pa,2021.1.4,59.89017339953057,
sounds/droite.ogg,0.7,,0,0,0,0,0,5,5,34,,,,,259.286739520001,258.601877400004,,,,001,2021_May_07_1328,list_pa,2021.1.4,59.89017339953057,
sounds/droite.ogg,0.7,,0,0,0,0,0,6,6,41,,,,,260.7841208200043,None,,,,001,2021_May_07_1328,list_pa,2021.1.4,59.89017339953057,
sounds/droite.ogg,0.7,,0,0,0,0,0,7,7,48,,,,,262.28668132000166,261.60221530000126,,,,001,2021_May_07_1328,list_pa,2021.1.4,59.89017339953057,
sounds/droite.ogg,0.7,,0,0,0,0,0,8,8,31,,,,,263.78755272000126,263.1012552000029,,,,001,2021_May_07_1328,list_pa,2021.1.4,59.89017339953057,
sounds/gauche.ogg,0.7,,0,0,0,0,0,9,9,16,,,,,265.28851072000543,264.60232490000635,,,,001,2021_May_07_1328,list_pa,2021.1.4,59.89017339953057,
sounds/gauche.ogg,0.7,,0,0,0,0,0,10,10,12,,,,,266.78759942000033,266.1024130000005,,,,001,2021_May_07_1328,list_pa,2021.1.4,59.89017339953057,
sounds/droite.ogg,0.7,,0,0,0,0,0,11,11,32,,,,,268.28809942000225,267.60305950000475,,,,001,2021_May_07_1328,list_pa,2021.1.4,59.89017339953057,
sounds/droite.ogg,0.7,,0,0,0,0,0,12,12,46,,,,,269.7887517199997,269.1032639000041,,,,001,2021_May_07_1328,list_pa,2021.1.4,59.89017339953057,
sounds/gauche.ogg,0.7,,0,0,0,0,0,13,13,19,,,,,271.28951812000014,270.60364500000287,,,,001,2021_May_07_1328,list_pa,2021.1.4,59.89017339953057,
sounds/gauche.ogg,0.7,,0,0,0,0,0,14,14,18,,,,,272.7888067200038,272.10343520000606,,,,001,2021_May_07_1328,list_pa,2021.1.4,59.89017339953057,
sounds/droite.ogg,0.7,,0,0,0,0,0,15,15,43,,,,,274.2891737200043,273.603680500004,,,,001,2021_May_07_1328,list_pa,2021.1.4,59.89017339953057,
sounds/droite.ogg,0.7,,0,0,0,0,0,16,16,29,,,,,275.79006782000215,275.1042274000065,,,,001,2021_May_07_1328,list_pa,2021.1.4,59.89017339953057,
sounds/gauche.ogg,0.7,,0,0,0,0,0,17,17,13,,,,,277.2898093200056,276.6046287000063,,,,001,2021_May_07_1328,list_pa,2021.1.4,59.89017339953057,
sounds/gauche.ogg,0.7,,0,0,0,0,0,18,18,3,,,,,278.7901353200068,None,,,,001,2021_May_07_1328,list_pa,2021.1.4,59.89017339953057,
sounds/gauche.ogg,0.7,,0,0,0,0,0,19,19,14,,,,,280.2905916200034,279.6051640000005,,,,001,2021_May_07_1328,list_pa,2021.1.4,59.89017339953057,
sounds/gauche.ogg,0.7,,0,0,0,0,0,20,20,20,,,,,281.7907236200044,281.1055284000031,,,,001,2021_May_07_1328,list_pa,2021.1.4,59.89017339953057,
sounds/gauche.ogg,0.7,,0,0,0,0,0,21,21,10,,,,,283.2907927200067,282.6052250000066,,,,001,2021_May_07_1328,list_pa,2021.1.4,59.89017339953057,
sounds/gauche.ogg,0.7,,0,0,0,0,0,22,22,23,,,,,284.7911163200042,284.1063038000066,,,,001,2021_May_07_1328,list_pa,2021.1.4,59.89017339953057,
sounds/droite.ogg,0.7,,0,0,0,0,0,23,23,30,,,,,286.291795420002,285.60691410000436,,,,001,2021_May_07_1328,list_pa,2021.1.4,59.89017339953057,
sounds/gauche.ogg,0.7,,0,0,0,0,0,24,24,0,,,,,287.79212671999994,287.10717950000253,,,,001,2021_May_07_1328,list_pa,2021.1.4,59.89017339953057,
sounds/gauche.ogg,0.7,,0,0,0,0,0,25,25,17,,,,,289.29173702000116,288.60727320000296,,,,001,2021_May_07_1328,list_pa,2021.1.4,59.89017339953057,
sounds/droite.ogg,0.7,,0,0,0,0,0,26,26,44,,,,,290.7925514200033,290.10730930000136,,,,001,2021_May_07_1328,list_pa,2021.1.4,59.89017339953057,
sounds/gauche.ogg,0.7,,0,0,0,0,0,27,27,5,,,,,292.3097454200033,None,,,,001,2021_May_07_1328,list_pa,2021.1.4,59.89017339953057,
sounds/droite.ogg,0.7,,0,0,0,0,0,28,28,27,,,,,293.8097876200045,None,,,,001,2021_May_07_1328,list_pa,2021.1.4,59.89017339953057,
sounds/droite.ogg,0.7,,0,0,0,0,0,29,29,33,,,,,295.31019881999964,294.6248992000037,,,,001,2021_May_07_1328,list_pa,2021.1.4,59.89017339953057,
sounds/gauche.ogg,0.7,,0,0,0,0,0,30,30,15,,,,,296.81061092000164,296.1254016000021,,,,001,2021_May_07_1328,list_pa,2021.1.4,59.89017339953057,
sounds/gauche.ogg,0.7,,0,0,0,0,0,31,31,9,,,,,298.31081072000234,None,,,,001,2021_May_07_1328,list_pa,2021.1.4,59.89017339953057,
sounds/droite.ogg,0.7,,0,0,0,0,0,32,32,39,,,,,299.81080922000547,299.1260148000001,,,,001,2021_May_07_1328,list_pa,2021.1.4,59.89017339953057,
sounds/droite.ogg,0.7,,0,0,0,0,0,33,33,47,,,,,301.3111139200046,300.6264214000039,,,,001,2021_May_07_1328,list_pa,2021.1.4,59.89017339953057,
sounds/droite.ogg,0.7,,0,0,0,0,0,34,34,49,,,,,302.81122382000467,302.12692050000624,,,,001,2021_May_07_1328,list_pa,2021.1.4,59.89017339953057,
sounds/gauche.ogg,0.7,,0,0,0,0,0,35,35,24,,,,,304.31223072000284,303.6269807999997,,,,001,2021_May_07_1328,list_pa,2021.1.4,59.89017339953057,
sounds/gauche.ogg,0.7,,0,0,0,0,0,36,36,22,,,,,305.81192551999993,305.12752770000225,,,,001,2021_May_07_1328,list_pa,2021.1.4,59.89017339953057,
sounds/gauche.ogg,0.7,,0,0,0,0,0,37,37,1,,,,,307.3122314200009,306.6273085000066,,,,001,2021_May_07_1328,list_pa,2021.1.4,59.89017339953057,
sounds/gauche.ogg,0.7,,0,0,0,0,0,38,38,8,,,,,308.81262842000433,308.12778850000177,,,,001,2021_May_07_1328,list_pa,2021.1.4,59.89017339953057,
sounds/droite.ogg,0.7,,0,0,0,0,0,39,39,28,,,,,310.3127056200028,309.6278864000051,,,,001,2021_May_07_1328,list_pa,2021.1.4,59.89017339953057,
sounds/gauche.ogg,0.7,,0,0,0,0,0,40,40,7,,,,,311.8137390200063,311.1287253000046,,,,001,2021_May_07_1328,list_pa,2021.1.4,59.89017339953057,
sounds/gauche.ogg,0.7,,0,0,0,0,0,41,41,21,,,,,313.3137390200063,312.62886640000215,,,,001,2021_May_07_1328,list_pa,2021.1.4,59.89017339953057,
sounds/droite.ogg,0.7,,0,0,0,0,0,42,42,25,,,,,314.8142628200003,314.1298128000053,,,,001,2021_May_07_1328,list_pa,2021.1.4,59.89017339953057,
sounds/gauche.ogg,0.7,,0,0,0,0,0,43,43,4,,,,,316.31428122000216,315.62936840000475,,,,001,2021_May_07_1328,list_pa,2021.1.4,59.89017339953057,
sounds/droite.ogg,0.7,,0,0,0,0,0,44,44,26,,,,,317.8144995200055,317.12979100000666,,,,001,2021_May_07_1328,list_pa,2021.1.4,59.89017339953057,
sounds/droite.ogg,0.7,,0,0,0,0,0,45,45,37,,,,,319.3156504200015,318.63004860000365,,,,001,2021_May_07_1328,list_pa,2021.1.4,59.89017339953057,
sounds/droite.ogg,0.7,,0,0,0,0,0,46,46,45,,,,,320.815890720005,320.1305829000048,,,,001,2021_May_07_1328,list_pa,2021.1.4,59.89017339953057,
sounds/gauche.ogg,0.7,,0,0,0,0,0,47,47,11,,,,,322.33206662000157,None,,,,001,2021_May_07_1328,list_pa,2021.1.4,59.89017339953057,
sounds/gauche.ogg,0.7,,0,0,0,0,0,48,48,2,,,,,323.83318752000196,323.1475156000015,,,,001,2021_May_07_1328,list_pa,2021.1.4,59.89017339953057,
sounds/droite.ogg,0.7,,0,0,0,0,0,49,49,36,,,,,325.33262032000493,None,,,,001,2021_May_07_1328,list_pa,2021.1.4,59.89017339953057,
,,30,0,0,0,0,,,,,0,0,0,0,,,326.4237714000046,None,,001,2021_May_07_1328,list_pa,2021.1.4,59.89017339953057,
,,29,0,0,0,0,,,,,0,1,1,1,,,327.1825139000066,None,,001,2021_May_07_1328,list_pa,2021.1.4,59.89017339953057,
,,28,0,0,0,0,,,,,0,2,2,2,,,328.16524340000615,None,,001,2021_May_07_1328,list_pa,2021.1.4,59.89017339953057,
,,27,0,0,0,0,,,,,0,3,3,3,,,329.16569660000096,None,,001,2021_May_07_1328,list_pa,2021.1.4,59.89017339953057,
,,26,0,0,0,0,,,,,0,4,4,4,,,330.1649591000023,None,,001,2021_May_07_1328,list_pa,2021.1.4,59.89017339953057,
,,25,0,0,0,0,,,,,0,5,5,5,,,331.1662779000035,None,,001,2021_May_07_1328,list_pa,2021.1.4,59.89017339953057,
,,24,0,0,0,0,,,,,0,6,6,6,,,332.16635880000103,None,,001,2021_May_07_1328,list_pa,2021.1.4,59.89017339953057,
,,23,0,0,0,0,,,,,0,7,7,7,,,333.1660924000025,None,,001,2021_May_07_1328,list_pa,2021.1.4,59.89017339953057,
,,22,0,0,0,0,,,,,0,8,8,8,,,334.16672950000066,None,,001,2021_May_07_1328,list_pa,2021.1.4,59.89017339953057,
,,21,0,0,0,0,,,,,0,9,9,9,,,335.1654991000032,None,,001,2021_May_07_1328,list_pa,2021.1.4,59.89017339953057,
,,20,0,0,0,0,,,,,0,10,10,10,,,336.16698900000483,None,,001,2021_May_07_1328,list_pa,2021.1.4,59.89017339953057,
,,19,0,0,0,0,,,,,0,11,11,11,,,337.1674056000047,None,,001,2021_May_07_1328,list_pa,2021.1.4,59.89017339953057,
,,18,0,0,0,0,,,,,0,12,12,12,,,338.167245800003,None,,001,2021_May_07_1328,list_pa,2021.1.4,59.89017339953057,
,,17,0,0,0,0,,,,,0,13,13,13,,,339.1677275000038,None,,001,2021_May_07_1328,list_pa,2021.1.4,59.89017339953057,
,,16,0,0,0,0,,,,,0,14,14,14,,,340.16791340000054,None,,001,2021_May_07_1328,list_pa,2021.1.4,59.89017339953057,
,,15,0,0,0,0,,,,,0,15,15,15,,,341.1678740000061,None,,001,2021_May_07_1328,list_pa,2021.1.4,59.89017339953057,
,,14,0,0,0,0,,,,,0,16,16,16,,,342.152307700002,None,,001,2021_May_07_1328,list_pa,2021.1.4,59.89017339953057,
,,13,0,0,0,0,,,,,0,17,17,17,,,343.16851060000045,None,,001,2021_May_07_1328,list_pa,2021.1.4,59.89017339953057,
,,12,0,0,0,0,,,,,0,18,18,18,,,344.15205390000483,None,,001,2021_May_07_1328,list_pa,2021.1.4,59.89017339953057,
,,11,0,0,0,0,,,,,0,19,19,19,,,345.15199090000533,None,,001,2021_May_07_1328,list_pa,2021.1.4,59.89017339953057,
,,10,0,0,0,0,,,,,0,20,20,20,,,346.15214410000044,None,,001,2021_May_07_1328,list_pa,2021.1.4,59.89017339953057,
,,9,0,0,0,0,,,,,0,21,21,21,,,347.1526718000023,None,,001,2021_May_07_1328,list_pa,2021.1.4,59.89017339953057,
,,8,0,0,0,0,,,,,0,22,22,22,,,348.1528263,None,,001,2021_May_07_1328,list_pa,2021.1.4,59.89017339953057,
,,7,0,0,0,0,,,,,0,23,23,23,,,349.1529185000036,None,,001,2021_May_07_1328,list_pa,2021.1.4,59.89017339953057,
,,6,0,0,0,0,,,,,0,24,24,24,,,350.15323210000497,None,,001,2021_May_07_1328,list_pa,2021.1.4,59.89017339953057,
,,5,0,0,0,0,,,,,0,25,25,25,,,351.1360369000031,None,,001,2021_May_07_1328,list_pa,2021.1.4,59.89017339953057,
,,4,0,0,0,0,,,,,0,26,26,26,,,352.15325880000455,None,,001,2021_May_07_1328,list_pa,2021.1.4,59.89017339953057,
,,3,0,0,0,0,,,,,0,27,27,27,,,353.15223450000485,None,,001,2021_May_07_1328,list_pa,2021.1.4,59.89017339953057,
,,2,0,0,0,0,,,,,0,28,28,28,,,354.15354070000467,None,,001,2021_May_07_1328,list_pa,2021.1.4,59.89017339953057,
,,1,0,0,0,0,,,,,0,29,29,29,,,355.15391540000564,None,,001,2021_May_07_1328,list_pa,2021.1.4,59.89017339953057,
,,0,0,0,0,0,,,,,0,30,30,30,,,356.1540141000005,None,,001,2021_May_07_1328,list_pa,2021.1.4,59.89017339953057,
,,,0,0,0,0,,,,,,,,,,,,,,001,2021_May_07_1328,list_pa,2021.1.4,59.89017339953057,
sounds/droite.ogg,0.7,,1,0,1,0,0,0,0,25,,,,,357.85623672000656,None,,,,001,2021_May_07_1328,list_pa,2021.1.4,59.89017339953057,
sounds/gauche.ogg,0.7,,1,0,1,0,0,1,1,8,,,,,359.35720172000583,358.6715317000053,,,,001,2021_May_07_1328,list_pa,2021.1.4,59.89017339953057,
sounds/droite.ogg,0.7,,1,0,1,0,0,2,2,27,,,,,360.85678572000324,360.17211150000367,,,,001,2021_May_07_1328,list_pa,2021.1.4,59.89017339953057,
sounds/gauche.ogg,0.7,,1,0,1,0,0,3,3,20,,,,,362.3577665200064,None,,,,001,2021_May_07_1328,list_pa,2021.1.4,59.89017339953057,
sounds/droite.ogg,0.7,,1,0,1,0,0,4,4,26,,,,,363.85749082000257,363.1721871000045,,,,001,2021_May_07_1328,list_pa,2021.1.4,59.89017339953057,
sounds/gauche.ogg,0.7,,1,0,1,0,0,5,5,3,,,,,365.3585980200005,364.67282120000164,,,,001,2021_May_07_1328,list_pa,2021.1.4,59.89017339953057,
sounds/gauche.ogg,0.7,,1,0,1,0,0,6,6,7,,,,,366.8582991200019,366.17148210000596,,,,001,2021_May_07_1328,list_pa,2021.1.4,59.89017339953057,
sounds/gauche.ogg,0.7,,1,0,1,0,0,7,7,5,,,,,368.35851322000235,None,,,,001,2021_May_07_1328,list_pa,2021.1.4,59.89017339953057,
sounds/droite.ogg,0.7,,1,0,1,0,0,8,8,45,,,,,369.8588944200019,369.1735725000035,,,,001,2021_May_07_1328,list_pa,2021.1.4,59.89017339953057,
sounds/gauche.ogg,0.7,,1,0,1,0,0,9,9,9,,,,,371.35914452,370.6738981000017,,,,001,2021_May_07_1328,list_pa,2021.1.4,59.89017339953057,
sounds/droite.ogg,0.7,,1,0,1,0,0,10,10,48,,,,,372.85968632000004,None,,,,001,2021_May_07_1328,list_pa,2021.1.4,59.89017339953057,
sounds/gauche.ogg,0.7,,1,0,1,0,0,11,11,0,,,,,374.3600416200061,373.67463169999974,,,,001,2021_May_07_1328,list_pa,2021.1.4,59.89017339953057,
sounds/gauche.ogg,0.7,,1,0,1,0,0,12,12,13,,,,,375.8598767200019,375.17468880000524,,,,001,2021_May_07_1328,list_pa,2021.1.4,59.89017339953057,
sounds/droite.ogg,0.7,,1,0,1,0,0,13,13,49,,,,,377.3600271200048,376.674895300006,,,,001,2021_May_07_1328,list_pa,2021.1.4,59.89017339953057,
sounds/droite.ogg,0.7,,1,0,1,0,0,14,14,35,,,,,378.86055762000615,378.1751729000025,,,,001,2021_May_07_1328,list_pa,2021.1.4,59.89017339953057,
sounds/droite.ogg,0.7,,1,0,1,0,0,15,15,29,,,,,380.3607287200066,379.67560010000307,,,,001,2021_May_07_1328,list_pa,2021.1.4,59.89017339953057,
sounds/droite.ogg,0.7,,1,0,1,0,0,16,16,47,,,,,381.86095172000205,381.17629200000374,,,,001,2021_May_07_1328,list_pa,2021.1.4,59.89017339953057,
sounds/gauche.ogg,0.7,,1,0,1,0,0,17,17,6,,,,,383.36115542000334,382.67618960000254,,,,001,2021_May_07_1328,list_pa,2021.1.4,59.89017339953057,
sounds/gauche.ogg,0.7,,1,0,1,0,0,18,18,4,,,,,384.86139212000126,384.17673410000134,,,,001,2021_May_07_1328,list_pa,2021.1.4,59.89017339953057,
sounds/droite.ogg,0.7,,1,0,1,0,0,19,19,40,,,,,386.36441972000466,385.67789880000055,,,,001,2021_May_07_1328,list_pa,2021.1.4,59.89017339953057,
sounds/gauche.ogg,0.7,,1,0,1,0,0,20,20,2,,,,,387.87913672000286,None,,,,001,2021_May_07_1328,list_pa,2021.1.4,59.89017339953057,
sounds/droite.ogg,0.7,,1,0,1,0,0,21,21,31,,,,,389.37975261999964,388.69375500000024,,,,001,2021_May_07_1328,list_pa,2021.1.4,59.89017339953057,
sounds/gauche.ogg,0.7,,1,0,1,0,0,22,22,15,,,,,390.87967842000216,390.19441100000404,,,,001,2021_May_07_1328,list_pa,2021.1.4,59.89017339953057,
sounds/gauche.ogg,0.7,,1,0,1,0,0,23,23,19,,,,,392.3799569200055,None,,,,001,2021_May_07_1328,list_pa,2021.1.4,59.89017339953057,
sounds/droite.ogg,0.7,,1,0,1,0,0,24,24,28,,,,,393.8805702200043,393.19514000000345,,,,001,2021_May_07_1328,list_pa,2021.1.4,59.89017339953057,
sounds/droite.ogg,0.7,,1,0,1,0,0,25,25,42,,,,,395.3806432199999,394.6956718000001,,,,001,2021_May_07_1328,list_pa,2021.1.4,59.89017339953057,
sounds/gauche.ogg,0.7,,1,0,1,0,0,26,26,14,,,,,396.8806302200028,396.19596140000067,,,,001,2021_May_07_1328,list_pa,2021.1.4,59.89017339953057,
sounds/gauche.ogg,0.7,,1,0,1,0,0,27,27,24,,,,,398.3811519200026,397.69592040000134,,,,001,2021_May_07_1328,list_pa,2021.1.4,59.89017339953057,
sounds/droite.ogg,0.7,,1,0,1,0,0,28,28,33,,,,,399.88174042000173,399.1966165000049,,,,001,2021_May_07_1328,list_pa,2021.1.4,59.89017339953057,
sounds/droite.ogg,0.7,,1,0,1,0,0,29,29,37,,,,,401.3819275200003,400.69637520000106,,,,001,2021_May_07_1328,list_pa,2021.1.4,59.89017339953057,
sounds/gauche.ogg,0.7,,1,0,1,0,0,30,30,12,,,,,402.88201342000684,402.1971562000035,,,,001,2021_May_07_1328,list_pa,2021.1.4,59.89017339953057,
sounds/gauche.ogg,0.7,,1,0,1,0,0,31,31,17,,,,,404.38246102000267,None,,,,001,2021_May_07_1328,list_pa,2021.1.4,59.89017339953057,
sounds/gauche.ogg,0.7,,1,0,1,0,0,32,32,22,,,,,405.8826646200032,405.1973896000054,,,,001,2021_May_07_1328,list_pa,2021.1.4,59.89017339953057,
sounds/droite.ogg,0.7,,1,0,1,0,0,33,33,34,,,,,407.3835054200026,406.6972706000015,,,,001,2021_May_07_1328,list_pa,2021.1.4,59.89017339953057,
sounds/droite.ogg,0.7,,1,0,1,0,0,34,34,32,,,,,408.8828691200033,None,,,,001,2021_May_07_1328,list_pa,2021.1.4,59.89017339953057,
sounds/gauche.ogg,0.7,,1,0,1,0,0,35,35,1,,,,,410.38328942000226,409.69804640000075,,,,001,2021_May_07_1328,list_pa,2021.1.4,59.89017339953057,
sounds/gauche.ogg,0.7,,1,0,1,0,0,36,36,23,,,,,411.8837424200028,411.1989928000039,,,,001,2021_May_07_1328,list_pa,2021.1.4,59.89017339953057,
sounds/droite.ogg,0.7,,1,0,1,0,0,37,37,39,,,,,413.3836397200066,412.69828750000306,,,,001,2021_May_07_1328,list_pa,2021.1.4,59.89017339953057,
sounds/droite.ogg,0.7,,1,0,1,0,0,38,38,38,,,,,414.8850145200049,414.1993189000059,,,,001,2021_May_07_1328,list_pa,2021.1.4,59.89017339953057,
sounds/droite.ogg,0.7,,1,0,1,0,0,39,39,30,,,,,416.38469172000623,415.69998060000216,,,,001,2021_May_07_1328,list_pa,2021.1.4,59.89017339953057,
sounds/gauche.ogg,0.7,,1,0,1,0,0,40,40,16,,,,,417.88525002000097,417.1992124000026,,,,001,2021_May_07_1328,list_pa,2021.1.4,59.89017339953057,
sounds/gauche.ogg,0.7,,1,0,1,0,0,41,41,11,,,,,419.3856101199999,418.7006345000045,,,,001,2021_May_07_1328,list_pa,2021.1.4,59.89017339953057,
sounds/droite.ogg,0.7,,1,0,1,0,0,42,42,44,,,,,420.88486092000676,420.20090750000236,,,,001,2021_May_07_1328,list_pa,2021.1.4,59.89017339953057,
sounds/droite.ogg,0.7,,1,0,1,0,0,43,43,46,,,,,422.3856387200067,421.70132020000165,,,,001,2021_May_07_1328,list_pa,2021.1.4,59.89017339953057,
sounds/gauche.ogg,0.7,,1,0,1,0,0,44,44,21,,,,,423.8868881200033,423.2018551000001,,,,001,2021_May_07_1328,list_pa,2021.1.4,59.89017339953057,
sounds/droite.ogg,0.7,,1,0,1,0,0,45,45,36,,,,,425.38722872000653,424.70132990000275,,,,001,2021_May_07_1328,list_pa,2021.1.4,59.89017339953057,
sounds/droite.ogg,0.7,,1,0,1,0,0,46,46,41,,,,,426.88686661999964,426.2022001000005,,,,001,2021_May_07_1328,list_pa,2021.1.4,59.89017339953057,
sounds/gauche.ogg,0.7,,1,0,1,0,0,47,47,18,,,,,428.3873482199997,None,,,,001,2021_May_07_1328,list_pa,2021.1.4,59.89017339953057,
sounds/droite.ogg,0.7,,1,0,1,0,0,48,48,43,,,,,429.8874436200058,429.201599,,,,001,2021_May_07_1328,list_pa,2021.1.4,59.89017339953057,
sounds/gauche.ogg,0.7,,1,0,1,0,0,49,49,10,,,,,431.3878141200039,430.70300390000193,,,,001,2021_May_07_1328,list_pa,2021.1.4,59.89017339953057,
,,30,1,0,1,0,,,,,0,0,0,0,,,432.23603270000604,None,,001,2021_May_07_1328,list_pa,2021.1.4,59.89017339953057,
,,29,1,0,1,0,,,,,0,1,1,1,,,433.220098400001,None,,001,2021_May_07_1328,list_pa,2021.1.4,59.89017339953057,
,,28,1,0,1,0,,,,,0,2,2,2,,,434.22053620000224,None,,001,2021_May_07_1328,list_pa,2021.1.4,59.89017339953057,
,,27,1,0,1,0,,,,,0,3,3,3,,,435.2203554000007,None,,001,2021_May_07_1328,list_pa,2021.1.4,59.89017339953057,
,,26,1,0,1,0,,,,,0,4,4,4,,,436.22128930000326,None,,001,2021_May_07_1328,list_pa,2021.1.4,59.89017339953057,
,,25,1,0,1,0,,,,,0,5,5,5,,,437.2207722000021,None,,001,2021_May_07_1328,list_pa,2021.1.4,59.89017339953057,
,,24,1,0,1,0,,,,,0,6,6,6,,,438.22166149999975,None,,001,2021_May_07_1328,list_pa,2021.1.4,59.89017339953057,
,,23,1,0,1,0,,,,,0,7,7,7,,,439.2218803000069,None,,001,2021_May_07_1328,list_pa,2021.1.4,59.89017339953057,
,,22,1,0,1,0,,,,,0,8,8,8,,,440.2220853000035,None,,001,2021_May_07_1328,list_pa,2021.1.4,59.89017339953057,
,,21,1,0,1,0,,,,,0,9,9,9,,,441.2220981999999,None,,001,2021_May_07_1328,list_pa,2021.1.4,59.89017339953057,
,,20,1,0,1,0,,,,,0,10,10,10,,,442.22226260000025,None,,001,2021_May_07_1328,list_pa,2021.1.4,59.89017339953057,
,,19,1,0,1,0,,,,,0,11,11,11,,,443.221684300006,None,,001,2021_May_07_1328,list_pa,2021.1.4,59.89017339953057,
,,18,1,0,1,0,,,,,0,12,12,12,,,444.22232500000246,None,,001,2021_May_07_1328,list_pa,2021.1.4,59.89017339953057,
,,17,1,0,1,0,,,,,0,13,13,13,,,445.22248519999994,None,,001,2021_May_07_1328,list_pa,2021.1.4,59.89017339953057,
,,16,1,0,1,0,,,,,0,14,14,14,,,446.2224789000029,None,,001,2021_May_07_1328,list_pa,2021.1.4,59.89017339953057,
,,15,1,0,1,0,,,,,0,15,15,15,,,447.222448600005,None,,001,2021_May_07_1328,list_pa,2021.1.4,59.89017339953057,
,,14,1,0,1,0,,,,,0,16,16,16,,,448.2228654000064,None,,001,2021_May_07_1328,list_pa,2021.1.4,59.89017339953057,
,,13,1,0,1,0,,,,,0,17,17,17,,,449.22295940000186,None,,001,2021_May_07_1328,list_pa,2021.1.4,59.89017339953057,
,,12,1,0,1,0,,,,,0,18,18,18,,,450.22303930000635,None,,001,2021_May_07_1328,list_pa,2021.1.4,59.89017339953057,
,,11,1,0,1,0,,,,,0,19,19,19,,,451.2232088000019,None,,001,2021_May_07_1328,list_pa,2021.1.4,59.89017339953057,
,,10,1,0,1,0,,,,,0,20,20,20,,,452.223521800006,None,,001,2021_May_07_1328,list_pa,2021.1.4,59.89017339953057,
,,9,1,0,1,0,,,,,0,21,21,21,,,453.2226837000053,None,,001,2021_May_07_1328,list_pa,2021.1.4,59.89017339953057,
,,8,1,0,1,0,,,,,0,22,22,22,,,454.2076343000008,None,,001,2021_May_07_1328,list_pa,2021.1.4,59.89017339953057,
,,7,1,0,1,0,,,,,0,23,23,23,,,455.2078604000053,None,,001,2021_May_07_1328,list_pa,2021.1.4,59.89017339953057,
,,6,1,0,1,0,,,,,0,24,24,24,,,456.20783000000665,None,,001,2021_May_07_1328,list_pa,2021.1.4,59.89017339953057,
,,5,1,0,1,0,,,,,0,25,25,25,,,457.20805310000287,None,,001,2021_May_07_1328,list_pa,2021.1.4,59.89017339953057,
,,4,1,0,1,0,,,,,0,26,26,26,,,458.20838150000054,None,,001,2021_May_07_1328,list_pa,2021.1.4,59.89017339953057,
,,3,1,0,1,0,,,,,0,27,27,27,,,459.208672700006,None,,001,2021_May_07_1328,list_pa,2021.1.4,59.89017339953057,
,,2,1,0,1,0,,,,,0,28,28,28,,,460.20880190000025,None,,001,2021_May_07_1328,list_pa,2021.1.4,59.89017339953057,
,,1,1,0,1,0,,,,,0,29,29,29,,,461.20911100000376,None,,001,2021_May_07_1328,list_pa,2021.1.4,59.89017339953057,
,,0,1,0,1,0,,,,,0,30,30,30,,,462.2093906000009,None,,001,2021_May_07_1328,list_pa,2021.1.4,59.89017339953057,
,,,1,0,1,0,,,,,,,,,,,,,,001,2021_May_07_1328,list_pa,2021.1.4,59.89017339953057,
sounds/droite.ogg,0.7,,2,0,2,0,0,0,0,27,,,,,463.9106744200035,None,,,,001,2021_May_07_1328,list_pa,2021.1.4,59.89017339953057,
sounds/droite.ogg,0.7,,2,0,2,0,0,1,1,34,,,,,465.4110101200058,464.7261362999998,,,,001,2021_May_07_1328,list_pa,2021.1.4,59.89017339953057,
sounds/gauche.ogg,0.7,,2,0,2,0,0,2,2,10,,,,,466.9111692200022,466.2265541000015,,,,001,2021_May_07_1328,list_pa,2021.1.4,59.89017339953057,
sounds/gauche.ogg,0.7,,2,0,2,0,0,3,3,23,,,,,468.4115657200018,None,,,,001,2021_May_07_1328,list_pa,2021.1.4,59.89017339953057,
sounds/droite.ogg,0.7,,2,0,2,0,0,4,4,35,,,,,469.9122304200064,469.22739260000526,,,,001,2021_May_07_1328,list_pa,2021.1.4,59.89017339953057,
sounds/gauche.ogg,0.7,,2,0,2,0,0,5,5,5,,,,,471.412186020003,470.7272995000021,,,,001,2021_May_07_1328,list_pa,2021.1.4,59.89017339953057,
sounds/gauche.ogg,0.7,,2,0,2,0,0,6,6,12,,,,,472.9294753200011,None,,,,001,2021_May_07_1328,list_pa,2021.1.4,59.89017339953057,
sounds/droite.ogg,0.7,,2,0,2,0,0,7,7,48,,,,,474.4296815199996,473.74468410000554,,,,001,2021_May_07_1328,list_pa,2021.1.4,59.89017339953057,
sounds/gauche.ogg,0.7,,2,0,2,0,0,8,8,2,,,,,475.92987132000417,475.24510040000314,,,,001,2021_May_07_1328,list_pa,2021.1.4,59.89017339953057,
sounds/gauche.ogg,0.7,,2,0,2,0,0,9,9,14,,,,,477.4307811200051,476.7469301000019,,,,001,2021_May_07_1328,list_pa,2021.1.4,59.89017339953057,
sounds/gauche.ogg,0.7,,2,0,2,0,0,10,10,16,,,,,478.93055102000653,478.24729610000213,,,,001,2021_May_07_1328,list_pa,2021.1.4,59.89017339953057,
sounds/gauche.ogg,0.7,,2,0,2,0,0,11,11,3,,,,,480.430825620002,479.74588410000433,,,,001,2021_May_07_1328,list_pa,2021.1.4,59.89017339953057,
sounds/droite.ogg,0.7,,2,0,2,0,0,12,12,25,,,,,481.93148062000546,481.2463863000012,,,,001,2021_May_07_1328,list_pa,2021.1.4,59.89017339953057,
sounds/droite.ogg,0.7,,2,0,2,0,0,13,13,43,,,,,483.4312008200068,None,,,,001,2021_May_07_1328,list_pa,2021.1.4,59.89017339953057,
sounds/gauche.ogg,0.7,,2,0,2,0,0,14,14,7,,,,,484.93155532000674,484.2467523000014,,,,001,2021_May_07_1328,list_pa,2021.1.4,59.89017339953057,
sounds/droite.ogg,0.7,,2,0,2,0,0,15,15,36,,,,,486.43246501999965,485.74703180000506,,,,001,2021_May_07_1328,list_pa,2021.1.4,59.89017339953057,
sounds/gauche.ogg,0.7,,2,0,2,0,0,16,16,18,,,,,487.9322631200048,487.2475031000067,,,,001,2021_May_07_1328,list_pa,2021.1.4,59.89017339953057,
sounds/droite.ogg,0.7,,2,0,2,0,0,17,17,39,,,,,489.4334635200066,488.7481908000045,,,,001,2021_May_07_1328,list_pa,2021.1.4,59.89017339953057,
sounds/gauche.ogg,0.7,,2,0,2,0,0,18,18,0,,,,,490.9329779200052,490.2481514000028,,,,001,2021_May_07_1328,list_pa,2021.1.4,59.89017339953057,
sounds/gauche.ogg,0.7,,2,0,2,0,0,19,19,22,,,,,492.43329642000026,491.7515954000046,,,,001,2021_May_07_1328,list_pa,2021.1.4,59.89017339953057,
sounds/gauche.ogg,0.7,,2,0,2,0,0,20,20,24,,,,,493.93434852000064,493.25056980000227,,,,001,2021_May_07_1328,list_pa,2021.1.4,59.89017339953057,
sounds/droite.ogg,0.7,,2,0,2,0,0,21,21,32,,,,,495.4339742200027,494.74924060000194,,,,001,2021_May_07_1328,list_pa,2021.1.4,59.89017339953057,
sounds/droite.ogg,0.7,,2,0,2,0,0,22,22,37,,,,,496.9342207200025,496.2496465000004,,,,001,2021_May_07_1328,list_pa,2021.1.4,59.89017339953057,
sounds/gauche.ogg,0.7,,2,0,2,0,0,23,23,15,,,,,498.4353396200022,497.749960000001,,,,001,2021_May_07_1328,list_pa,2021.1.4,59.89017339953057,
sounds/droite.ogg,0.7,,2,0,2,0,0,24,24,49,,,,,499.9513708200029,None,,,,001,2021_May_07_1328,list_pa,2021.1.4,59.89017339953057,
sounds/gauche.ogg,0.7,,2,0,2,0,0,25,25,4,,,,,501.4522900200027,500.7672765000025,,,,001,2021_May_07_1328,list_pa,2021.1.4,59.89017339953057,
sounds/gauche.ogg,0.7,,2,0,2,0,0,26,26,8,,,,,502.9522317200026,None,,,,001,2021_May_07_1328,list_pa,2021.1.4,59.89017339953057,
sounds/droite.ogg,0.7,,2,0,2,0,0,27,27,33,,,,,504.4526274200034,503.7675700000036,,,,001,2021_May_07_1328,list_pa,2021.1.4,59.89017339953057,
sounds/gauche.ogg,0.7,,2,0,2,0,0,28,28,17,,,,,505.95264282000426,505.26779220000026,,,,001,2021_May_07_1328,list_pa,2021.1.4,59.89017339953057,
sounds/droite.ogg,0.7,,2,0,2,0,0,29,29,47,,,,,507.4530040200043,506.76736710000114,,,,001,2021_May_07_1328,list_pa,2021.1.4,59.89017339953057,
sounds/droite.ogg,0.7,,2,0,2,0,0,30,30,40,,,,,508.9539908200022,508.2687056000068,,,,001,2021_May_07_1328,list_pa,2021.1.4,59.89017339953057,
sounds/droite.ogg,0.7,,2,0,2,0,0,31,31,29,,,,,510.4537316200003,509.7689226000002,,,,001,2021_May_07_1328,list_pa,2021.1.4,59.89017339953057,
sounds/gauche.ogg,0.7,,2,0,2,0,0,32,32,6,,,,,511.95442192000337,511.26901880000514,,,,001,2021_May_07_1328,list_pa,2021.1.4,59.89017339953057,
sounds/gauche.ogg,0.7,,2,0,2,0,0,33,33,9,,,,,513.4542427200067,512.7695297000027,,,,001,2021_May_07_1328,list_pa,2021.1.4,59.89017339953057,
sounds/droite.ogg,0.7,,2,0,2,0,0,34,34,42,,,,,514.9546664200025,514.2699664000029,,,,001,2021_May_07_1328,list_pa,2021.1.4,59.89017339953057,
sounds/droite.ogg,0.7,,2,0,2,0,0,35,35,28,,,,,516.455502320001,515.7699816000022,,,,001,2021_May_07_1328,list_pa,2021.1.4,59.89017339953057,
sounds/gauche.ogg,0.7,,2,0,2,0,0,36,36,1,,,,,517.9553560200002,517.2699677000055,,,,001,2021_May_07_1328,list_pa,2021.1.4,59.89017339953057,
sounds/droite.ogg,0.7,,2,0,2,0,0,37,37,38,,,,,519.4554366200027,None,,,,001,2021_May_07_1328,list_pa,2021.1.4,59.89017339953057,
sounds/droite.ogg,0.7,,2,0,2,0,0,38,38,41,,,,,520.9565229200016,None,,,,001,2021_May_07_1328,list_pa,2021.1.4,59.89017339953057,
sounds/droite.ogg,0.7,,2,0,2,0,0,39,39,46,,,,,522.4559329200056,521.7717671000064,,,,001,2021_May_07_1328,list_pa,2021.1.4,59.89017339953057,
sounds/droite.ogg,0.7,,2,0,2,0,0,40,40,30,,,,,523.9573280200057,None,,,,001,2021_May_07_1328,list_pa,2021.1.4,59.89017339953057,
sounds/droite.ogg,0.7,,2,0,2,0,0,41,41,31,,,,,525.4573566200052,524.7724128000045,,,,001,2021_May_07_1328,list_pa,2021.1.4,59.89017339953057,
sounds/droite.ogg,0.7,,2,0,2,0,0,42,42,26,,,,,526.9741324200004,None,,,,001,2021_May_07_1328,list_pa,2021.1.4,59.89017339953057,
sounds/droite.ogg,0.7,,2,0,2,0,0,43,43,44,,,,,528.4746903200066,527.7892647000044,,,,001,2021_May_07_1328,list_pa,2021.1.4,59.89017339953057,
sounds/gauche.ogg,0.7,,2,0,2,0,0,44,44,20,,,,,529.9741444200044,529.2896735000031,,,,001,2021_May_07_1328,list_pa,2021.1.4,59.89017339953057,
sounds/gauche.ogg,0.7,,2,0,2,0,0,45,45,19,,,,,531.4745905200034,530.7896944000022,,,,001,2021_May_07_1328,list_pa,2021.1.4,59.89017339953057,
sounds/gauche.ogg,0.7,,2,0,2,0,0,46,46,21,,,,,532.9747654200037,532.2902845000062,,,,001,2021_May_07_1328,list_pa,2021.1.4,59.89017339953057,
sounds/droite.ogg,0.7,,2,0,2,0,0,47,47,45,,,,,534.4756638200051,None,,,,001,2021_May_07_1328,list_pa,2021.1.4,59.89017339953057,
sounds/gauche.ogg,0.7,,2,0,2,0,0,48,48,11,,,,,535.9757490200063,535.2906753000061,,,,001,2021_May_07_1328,list_pa,2021.1.4,59.89017339953057,
sounds/gauche.ogg,0.7,,2,0,2,0,0,49,49,13,,,,,537.4758728200031,536.7915616000028,,,,001,2021_May_07_1328,list_pa,2021.1.4,59.89017339953057,
,,30,2,0,2,0,,,,,0,0,0,0,,,538.3242438000016,None,,001,2021_May_07_1328,list_pa,2021.1.4,59.89017339953057,
,,29,2,0,2,0,,,,,0,1,1,1,,,539.3081042000049,None,,001,2021_May_07_1328,list_pa,2021.1.4,59.89017339953057,
,,28,2,0,2,0,,,,,0,2,2,2,,,540.3079702000032,None,,001,2021_May_07_1328,list_pa,2021.1.4,59.89017339953057,
,,27,2,0,2,0,,,,,0,3,3,3,,,541.3081758000044,None,,001,2021_May_07_1328,list_pa,2021.1.4,59.89017339953057,
,,26,2,0,2,0,,,,,0,4,4,4,,,542.3087015000056,None,,001,2021_May_07_1328,list_pa,2021.1.4,59.89017339953057,
,,25,2,0,2,0,,,,,0,5,5,5,,,543.3090081000046,None,,001,2021_May_07_1328,list_pa,2021.1.4,59.89017339953057,
,,24,2,0,2,0,,,,,0,6,6,6,,,544.3092244,None,,001,2021_May_07_1328,list_pa,2021.1.4,59.89017339953057,
,,23,2,0,2,0,,,,,0,7,7,7,,,545.3093216000052,None,,001,2021_May_07_1328,list_pa,2021.1.4,59.89017339953057,
,,22,2,0,2,0,,,,,0,8,8,8,,,546.3098928000036,None,,001,2021_May_07_1328,list_pa,2021.1.4,59.89017339953057,
,,21,2,0,2,0,,,,,0,9,9,9,,,547.3098886000007,None,,001,2021_May_07_1328,list_pa,2021.1.4,59.89017339953057,
,,20,2,0,2,0,,,,,0,10,10,10,,,548.310573200004,None,,001,2021_May_07_1328,list_pa,2021.1.4,59.89017339953057,
,,19,2,0,2,0,,,,,0,11,11,11,,,549.3104657000003,None,,001,2021_May_07_1328,list_pa,2021.1.4,59.89017339953057,
,,18,2,0,2,0,,,,,0,12,12,12,,,550.3102089000022,None,,001,2021_May_07_1328,list_pa,2021.1.4,59.89017339953057,
,,17,2,0,2,0,,,,,0,13,13,13,,,551.3108079000012,None,,001,2021_May_07_1328,list_pa,2021.1.4,59.89017339953057,
,,16,2,0,2,0,,,,,0,14,14,14,,,552.311110900002,None,,001,2021_May_07_1328,list_pa,2021.1.4,59.89017339953057,
,,15,2,0,2,0,,,,,0,15,15,15,,,553.3111845000021,None,,001,2021_May_07_1328,list_pa,2021.1.4,59.89017339953057,
,,14,2,0,2,0,,,,,0,16,16,16,,,554.3119287000009,None,,001,2021_May_07_1328,list_pa,2021.1.4,59.89017339953057,
,,13,2,0,2,0,,,,,0,17,17,17,,,555.2945325000037,None,,001,2021_May_07_1328,list_pa,2021.1.4,59.89017339953057,
,,12,2,0,2,0,,,,,0,18,18,18,,,556.3121210000027,None,,001,2021_May_07_1328,list_pa,2021.1.4,59.89017339953057,
,,11,2,0,2,0,,,,,0,19,19,19,,,557.2948284000013,None,,001,2021_May_07_1328,list_pa,2021.1.4,59.89017339953057,
,,10,2,0,2,0,,,,,0,20,20,20,,,558.3119946000006,None,,001,2021_May_07_1328,list_pa,2021.1.4,59.89017339953057,
,,9,2,0,2,0,,,,,0,21,21,21,,,559.2951898000028,None,,001,2021_May_07_1328,list_pa,2021.1.4,59.89017339953057,
,,8,2,0,2,0,,,,,0,22,22,22,,,560.295498200001,None,,001,2021_May_07_1328,list_pa,2021.1.4,59.89017339953057,
,,7,2,0,2,0,,,,,0,23,23,23,,,561.2957430000024,None,,001,2021_May_07_1328,list_pa,2021.1.4,59.89017339953057,
,,6,2,0,2,0,,,,,0,24,24,24,,,562.2959976000056,None,,001,2021_May_07_1328,list_pa,2021.1.4,59.89017339953057,
,,5,2,0,2,0,,,,,0,25,25,25,,,563.296015400003,None,,001,2021_May_07_1328,list_pa,2021.1.4,59.89017339953057,
,,4,2,0,2,0,,,,,0,26,26,26,,,564.2966698000018,None,,001,2021_May_07_1328,list_pa,2021.1.4,59.89017339953057,
,,3,2,0,2,0,,,,,0,27,27,27,,,565.2966702000049,None,,001,2021_May_07_1328,list_pa,2021.1.4,59.89017339953057,
,,2,2,0,2,0,,,,,0,28,28,28,,,566.2974159000005,None,,001,2021_May_07_1328,list_pa,2021.1.4,59.89017339953057,
,,1,2,0,2,0,,,,,0,29,29,29,,,567.2963038000016,None,,001,2021_May_07_1328,list_pa,2021.1.4,59.89017339953057,
,,0,2,0,2,0,,,,,0,30,30,30,,,568.2973416000023,None,,001,2021_May_07_1328,list_pa,2021.1.4,59.89017339953057,
,,,2,0,2,0,,,,,,,,,,,,,,001,2021_May_07_1328,list_pa,2021.1.4,59.89017339953057,
sounds/droite.ogg,0.7,,3,0,3,0,0,0,0,38,,,,,570.0162833200011,None,,,,001,2021_May_07_1328,list_pa,2021.1.4,59.89017339953057,
sounds/droite.ogg,0.7,,3,0,3,0,0,1,1,34,,,,,571.5326542200055,None,,,,001,2021_May_07_1328,list_pa,2021.1.4,59.89017339953057,
sounds/droite.ogg,0.7,,3,0,3,0,0,2,2,26,,,,,573.0325312200002,None,,,,001,2021_May_07_1328,list_pa,2021.1.4,59.89017339953057,
sounds/droite.ogg,0.7,,3,0,3,0,0,3,3,49,,,,,574.5331971200067,573.8483290000004,,,,001,2021_May_07_1328,list_pa,2021.1.4,59.89017339953057,
sounds/gauche.ogg,0.7,,3,0,3,0,0,4,4,4,,,,,576.0336022200063,575.3490560999999,,,,001,2021_May_07_1328,list_pa,2021.1.4,59.89017339953057,
sounds/droite.ogg,0.7,,3,0,3,0,0,5,5,35,,,,,577.5340163200017,576.8488821999999,,,,001,2021_May_07_1328,list_pa,2021.1.4,59.89017339953057,
sounds/gauche.ogg,0.7,,3,0,3,0,0,6,6,1,,,,,579.0344979200017,578.3495857000016,,,,001,2021_May_07_1328,list_pa,2021.1.4,59.89017339953057,
sounds/droite.ogg,0.7,,3,0,3,0,0,7,7,28,,,,,580.5350496200044,579.849669400006,,,,001,2021_May_07_1328,list_pa,2021.1.4,59.89017339953057,
sounds/droite.ogg,0.7,,3,0,3,0,0,8,8,40,,,,,582.035135820006,581.3502632000018,,,,001,2021_May_07_1328,list_pa,2021.1.4,59.89017339953057,
sounds/droite.ogg,0.7,,3,0,3,0,0,9,9,37,,,,,583.5353242199999,582.8501235000003,,,,001,2021_May_07_1328,list_pa,2021.1.4,59.89017339953057,
sounds/droite.ogg,0.7,,3,0,3,0,0,10,10,29,,,,,585.0350123200042,584.3512949000069,,,,001,2021_May_07_1328,list_pa,2021.1.4,59.89017339953057,
sounds/droite.ogg,0.7,,3,0,3,0,0,11,11,39,,,,,586.5359112200022,585.8505789000046,,,,001,2021_May_07_1328,list_pa,2021.1.4,59.89017339953057,
sounds/droite.ogg,0.7,,3,0,3,0,0,12,12,33,,,,,588.0373539200009,587.3515100000004,,,,001,2021_May_07_1328,list_pa,2021.1.4,59.89017339953057,
sounds/gauche.ogg,0.7,,3,0,3,0,0,13,13,16,,,,,589.5529725200031,None,,,,001,2021_May_07_1328,list_pa,2021.1.4,59.89017339953057,
sounds/gauche.ogg,0.7,,3,0,3,0,0,14,14,9,,,,,591.0538415200062,590.3683810000002,,,,001,2021_May_07_1328,list_pa,2021.1.4,59.89017339953057,
sounds/gauche.ogg,0.7,,3,0,3,0,0,15,15,10,,,,,592.5534681200006,591.8689406000049,,,,001,2021_May_07_1328,list_pa,2021.1.4,59.89017339953057,
sounds/gauche.ogg,0.7,,3,0,3,0,0,16,16,19,,,,,594.0539280200028,593.3692603000018,,,,001,2021_May_07_1328,list_pa,2021.1.4,59.89017339953057,
sounds/gauche.ogg,0.7,,3,0,3,0,0,17,17,11,,,,,595.5549627200016,594.8694107000047,,,,001,2021_May_07_1328,list_pa,2021.1.4,59.89017339953057,
sounds/droite.ogg,0.7,,3,0,3,0,0,18,18,36,,,,,597.0540147200009,596.3694533000016,,,,001,2021_May_07_1328,list_pa,2021.1.4,59.89017339953057,
sounds/droite.ogg,0.7,,3,0,3,0,0,19,19,31,,,,,598.5549709200059,597.8706128000049,,,,001,2021_May_07_1328,list_pa,2021.1.4,59.89017339953057,
sounds/gauche.ogg,0.7,,3,0,3,0,0,20,20,20,,,,,600.0551386200023,599.3704391000065,,,,001,2021_May_07_1328,list_pa,2021.1.4,59.89017339953057,
sounds/gauche.ogg,0.7,,3,0,3,0,0,21,21,12,,,,,601.5553295200007,600.8710265000045,,,,001,2021_May_07_1328,list_pa,2021.1.4,59.89017339953057,
sounds/gauche.ogg,0.7,,3,0,3,0,0,22,22,7,,,,,603.0561845200064,602.3711600000024,,,,001,2021_May_07_1328,list_pa,2021.1.4,59.89017339953057,
sounds/gauche.ogg,0.7,,3,0,3,0,0,23,23,2,,,,,604.5566482200011,603.8711117000057,,,,001,2021_May_07_1328,list_pa,2021.1.4,59.89017339953057,
sounds/droite.ogg,0.7,,3,0,3,0,0,24,24,42,,,,,606.0563914200029,605.3721233000033,,,,001,2021_May_07_1328,list_pa,2021.1.4,59.89017339953057,
sounds/droite.ogg,0.7,,3,0,3,0,0,25,25,44,,,,,607.5575329200001,None,,,,001,2021_May_07_1328,list_pa,2021.1.4,59.89017339953057,
sounds/gauche.ogg,0.7,,3,0,3,0,0,26,26,15,,,,,609.0575784200046,608.3721647000057,,,,001,2021_May_07_1328,list_pa,2021.1.4,59.89017339953057,
sounds/gauche.ogg,0.7,,3,0,3,0,0,27,27,13,,,,,610.5573265200001,609.8724318000022,,,,001,2021_May_07_1328,list_pa,2021.1.4,59.89017339953057,
sounds/droite.ogg,0.7,,3,0,3,0,0,28,28,46,,,,,612.0586660200061,611.3727239,,,,001,2021_May_07_1328,list_pa,2021.1.4,59.89017339953057,
sounds/gauche.ogg,0.7,,3,0,3,0,0,29,29,3,,,,,613.5583861200066,612.8726168000067,,,,001,2021_May_07_1328,list_pa,2021.1.4,59.89017339953057,
sounds/droite.ogg,0.7,,3,0,3,0,0,30,30,25,,,,,615.0588622200012,614.3729222000038,,,,001,2021_May_07_1328,list_pa,2021.1.4,59.89017339953057,
sounds/gauche.ogg,0.7,,3,0,3,0,0,31,31,24,,,,,616.5583584200067,615.873285200003,,,,001,2021_May_07_1328,list_pa,2021.1.4,59.89017339953057,
sounds/droite.ogg,0.7,,3,0,3,0,0,32,32,43,,,,,618.0588932200044,617.3735532999999,,,,001,2021_May_07_1328,list_pa,2021.1.4,59.89017339953057,
sounds/gauche.ogg,0.7,,3,0,3,0,0,33,33,18,,,,,619.5763648200009,618.873324500004,,,,001,2021_May_07_1328,list_pa,2021.1.4,59.89017339953057,
sounds/gauche.ogg,0.7,,3,0,3,0,0,34,34,17,,,,,621.076174120004,620.391838800002,,,,001,2021_May_07_1328,list_pa,2021.1.4,59.89017339953057,
sounds/gauche.ogg,0.7,,3,0,3,0,0,35,35,0,,,,,622.5772717200016,621.8919846000063,,,,001,2021_May_07_1328,list_pa,2021.1.4,59.89017339953057,
sounds/gauche.ogg,0.7,,3,0,3,0,0,36,36,23,,,,,624.0767135200003,None,,,,001,2021_May_07_1328,list_pa,2021.1.4,59.89017339953057,
sounds/droite.ogg,0.7,,3,0,3,0,0,37,37,30,,,,,625.5778991200059,None,,,,001,2021_May_07_1328,list_pa,2021.1.4,59.89017339953057,
sounds/droite.ogg,0.7,,3,0,3,0,0,38,38,32,,,,,627.0780846199996,626.392216100001,,,,001,2021_May_07_1328,list_pa,2021.1.4,59.89017339953057,
sounds/droite.ogg,0.7,,3,0,3,0,0,39,39,45,,,,,628.5784797200031,627.8923378000036,,,,001,2021_May_07_1328,list_pa,2021.1.4,59.89017339953057,
sounds/gauche.ogg,0.7,,3,0,3,0,0,40,40,6,,,,,630.0779643200003,629.3928889000017,,,,001,2021_May_07_1328,list_pa,2021.1.4,59.89017339953057,
sounds/gauche.ogg,0.7,,3,0,3,0,0,41,41,21,,,,,631.577673620006,630.892874600002,,,,001,2021_May_07_1328,list_pa,2021.1.4,59.89017339953057,
sounds/droite.ogg,0.7,,3,0,3,0,0,42,42,48,,,,,633.0788740200005,632.3932065000045,,,,001,2021_May_07_1328,list_pa,2021.1.4,59.89017339953057,
sounds/droite.ogg,0.7,,3,0,3,0,0,43,43,47,,,,,634.5789736200022,633.8934995000018,,,,001,2021_May_07_1328,list_pa,2021.1.4,59.89017339953057,
sounds/gauche.ogg,0.7,,3,0,3,0,0,44,44,22,,,,,636.0789956200024,635.3938511000015,,,,001,2021_May_07_1328,list_pa,2021.1.4,59.89017339953057,
sounds/gauche.ogg,0.7,,3,0,3,0,0,45,45,5,,,,,637.5794988199996,636.8943749000027,,,,001,2021_May_07_1328,list_pa,2021.1.4,59.89017339953057,
sounds/droite.ogg,0.7,,3,0,3,0,0,46,46,41,,,,,639.0800214200062,638.3947464000012,,,,001,2021_May_07_1328,list_pa,2021.1.4,59.89017339953057,
sounds/droite.ogg,0.7,,3,0,3,0,0,47,47,27,,,,,640.5800742200008,639.8953087000045,,,,001,2021_May_07_1328,list_pa,2021.1.4,59.89017339953057,
sounds/gauche.ogg,0.7,,3,0,3,0,0,48,48,8,,,,,642.0805793200052,None,,,,001,2021_May_07_1328,list_pa,2021.1.4,59.89017339953057,
sounds/gauche.ogg,0.7,,3,0,3,0,0,49,49,14,,,,,643.5806008200016,642.8953076000034,,,,001,2021_May_07_1328,list_pa,2021.1.4,59.89017339953057,
,,30,3,0,3,0,,,,,0,0,0,0,,,644.411197100002,None,,001,2021_May_07_1328,list_pa,2021.1.4,59.89017339953057,
,,29,3,0,3,0,,,,,0,1,1,1,,,645.4127521000046,None,,001,2021_May_07_1328,list_pa,2021.1.4,59.89017339953057,
,,28,3,0,3,0,,,,,0,2,2,2,,,646.4127552999998,None,,001,2021_May_07_1328,list_pa,2021.1.4,59.89017339953057,
,,27,3,0,3,0,,,,,0,3,3,3,,,647.4132337000046,None,,001,2021_May_07_1328,list_pa,2021.1.4,59.89017339953057,
,,26,3,0,3,0,,,,,0,4,4,4,,,648.4135861000032,None,,001,2021_May_07_1328,list_pa,2021.1.4,59.89017339953057,
,,25,3,0,3,0,,,,,0,5,5,5,,,649.4134139000016,None,,001,2021_May_07_1328,list_pa,2021.1.4,59.89017339953057,
,,24,3,0,3,0,,,,,0,6,6,6,,,650.413844900002,None,,001,2021_May_07_1328,list_pa,2021.1.4,59.89017339953057,
,,23,3,0,3,0,,,,,0,7,7,7,,,651.4138243000052,None,,001,2021_May_07_1328,list_pa,2021.1.4,59.89017339953057,
,,22,3,0,3,0,,,,,0,8,8,8,,,652.4140144000048,None,,001,2021_May_07_1328,list_pa,2021.1.4,59.89017339953057,
,,21,3,0,3,0,,,,,0,9,9,9,,,653.4141587000049,None,,001,2021_May_07_1328,list_pa,2021.1.4,59.89017339953057,
,,20,3,0,3,0,,,,,0,10,10,10,,,654.417045400005,None,,001,2021_May_07_1328,list_pa,2021.1.4,59.89017339953057,
,,19,3,0,3,0,,,,,0,11,11,11,,,655.4147944000069,None,,001,2021_May_07_1328,list_pa,2021.1.4,59.89017339953057,
,,18,3,0,3,0,,,,,0,12,12,12,,,656.4151858000041,None,,001,2021_May_07_1328,list_pa,2021.1.4,59.89017339953057,
,,17,3,0,3,0,,,,,0,13,13,13,,,657.4153431000013,None,,001,2021_May_07_1328,list_pa,2021.1.4,59.89017339953057,
,,16,3,0,3,0,,,,,0,14,14,14,,,658.415358600003,None,,001,2021_May_07_1328,list_pa,2021.1.4,59.89017339953057,
,,15,3,0,3,0,,,,,0,15,15,15,,,659.4157383000056,None,,001,2021_May_07_1328,list_pa,2021.1.4,59.89017339953057,
,,14,3,0,3,0,,,,,0,16,16,16,,,660.4156044000047,None,,001,2021_May_07_1328,list_pa,2021.1.4,59.89017339953057,
,,13,3,0,3,0,,,,,0,17,17,17,,,661.4160818000018,None,,001,2021_May_07_1328,list_pa,2021.1.4,59.89017339953057,
,,12,3,0,3,0,,,,,0,18,18,18,,,662.3999160000021,None,,001,2021_May_07_1328,list_pa,2021.1.4,59.89017339953057,
,,11,3,0,3,0,,,,,0,19,19,19,,,663.3995731000032,None,,001,2021_May_07_1328,list_pa,2021.1.4,59.89017339953057,
,,10,3,0,3,0,,,,,0,20,20,20,,,664.3999933000014,None,,001,2021_May_07_1328,list_pa,2021.1.4,59.89017339953057,
,,9,3,0,3,0,,,,,0,21,21,21,,,665.4005730999997,None,,001,2021_May_07_1328,list_pa,2021.1.4,59.89017339953057,
,,8,3,0,3,0,,,,,0,22,22,22,,,666.4005623000048,None,,001,2021_May_07_1328,list_pa,2021.1.4,59.89017339953057,
,,7,3,0,3,0,,,,,0,23,23,23,,,667.4014830000015,None,,001,2021_May_07_1328,list_pa,2021.1.4,59.89017339953057,
,,6,3,0,3,0,,,,,0,24,24,24,,,668.4011825000052,None,,001,2021_May_07_1328,list_pa,2021.1.4,59.89017339953057,
,,5,3,0,3,0,,,,,0,25,25,25,,,669.4016136000064,None,,001,2021_May_07_1328,list_pa,2021.1.4,59.89017339953057,
,,4,3,0,3,0,,,,,0,26,26,26,,,670.4019141000026,None,,001,2021_May_07_1328,list_pa,2021.1.4,59.89017339953057,
,,3,3,0,3,0,,,,,0,27,27,27,,,671.4013588000016,None,,001,2021_May_07_1328,list_pa,2021.1.4,59.89017339953057,
,,2,3,0,3,0,,,,,0,28,28,28,,,672.4013608000023,None,,001,2021_May_07_1328,list_pa,2021.1.4,59.89017339953057,
,,1,3,0,3,0,,,,,0,29,29,29,,,673.4015773000065,None,,001,2021_May_07_1328,list_pa,2021.1.4,59.89017339953057,
,,0,3,0,3,0,,,,,0,30,30,30,,,674.4022482,None,,001,2021_May_07_1328,list_pa,2021.1.4,59.89017339953057,
,,,3,0,3,0,,,,,,,,,,,,,,001,2021_May_07_1328,list_pa,2021.1.4,59.89017339953057,
sounds/gauche.ogg,0.7,,4,0,4,0,0,0,0,21,,,,,676.1035437200044,None,,,,001,2021_May_07_1328,list_pa,2021.1.4,59.89017339953057,
sounds/droite.ogg,0.7,,4,0,4,0,0,1,1,47,,,,,677.6043231200019,676.9192461000057,,,,001,2021_May_07_1328,list_pa,2021.1.4,59.89017339953057,
sounds/droite.ogg,0.7,,4,0,4,0,0,2,2,41,,,,,679.104670820001,678.419615800005,,,,001,2021_May_07_1328,list_pa,2021.1.4,59.89017339953057,
sounds/gauche.ogg,0.7,,4,0,4,0,0,3,3,1,,,,,680.6050580200026,679.9190075000006,,,,001,2021_May_07_1328,list_pa,2021.1.4,59.89017339953057,
sounds/droite.ogg,0.7,,4,0,4,0,0,4,4,35,,,,,682.1051809199998,681.4203216000024,,,,001,2021_May_07_1328,list_pa,2021.1.4,59.89017339953057,
sounds/gauche.ogg,0.7,,4,0,4,0,0,5,5,10,,,,,683.6054852200032,None,,,,001,2021_May_07_1328,list_pa,2021.1.4,59.89017339953057,
sounds/gauche.ogg,0.7,,4,0,4,0,0,6,6,5,,,,,685.123567720002,None,,,,001,2021_May_07_1328,list_pa,2021.1.4,59.89017339953057,
sounds/droite.ogg,0.7,,4,0,4,0,0,7,7,27,,,,,686.6229754200031,None,,,,001,2021_May_07_1328,list_pa,2021.1.4,59.89017339953057,
sounds/droite.ogg,0.7,,4,0,4,0,0,8,8,36,,,,,688.123157920003,687.4380713000064,,,,001,2021_May_07_1328,list_pa,2021.1.4,59.89017339953057,
sounds/droite.ogg,0.7,,4,0,4,0,0,9,9,28,,,,,689.6235593200036,688.9385363000038,,,,001,2021_May_07_1328,list_pa,2021.1.4,59.89017339953057,
sounds/droite.ogg,0.7,,4,0,4,0,0,10,10,34,,,,,691.1236396200038,690.4388017000019,,,,001,2021_May_07_1328,list_pa,2021.1.4,59.89017339953057,
sounds/droite.ogg,0.7,,4,0,4,0,0,11,11,25,,,,,692.6246366200066,691.9389062000046,,,,001,2021_May_07_1328,list_pa,2021.1.4,59.89017339953057,
sounds/gauche.ogg,0.7,,4,0,4,0,0,12,12,13,,,,,694.1243864200005,693.4393628000034,,,,001,2021_May_07_1328,list_pa,2021.1.4,59.89017339953057,
sounds/gauche.ogg,0.7,,4,0,4,0,0,13,13,23,,,,,695.6249472199997,694.9395804000014,,,,001,2021_May_07_1328,list_pa,2021.1.4,59.89017339953057,
sounds/gauche.ogg,0.7,,4,0,4,0,0,14,14,6,,,,,697.1250202200026,696.4397924000004,,,,001,2021_May_07_1328,list_pa,2021.1.4,59.89017339953057,
sounds/droite.ogg,0.7,,4,0,4,0,0,15,15,33,,,,,698.6248498200002,697.9392446000056,,,,001,2021_May_07_1328,list_pa,2021.1.4,59.89017339953057,
sounds/droite.ogg,0.7,,4,0,4,0,0,16,16,44,,,,,700.1253100200047,699.4404728000009,,,,001,2021_May_07_1328,list_pa,2021.1.4,59.89017339953057,
sounds/gauche.ogg,0.7,,4,0,4,0,0,17,17,8,,,,,701.6263743200034,700.9403071000052,,,,001,2021_May_07_1328,list_pa,2021.1.4,59.89017339953057,
sounds/gauche.ogg,0.7,,4,0,4,0,0,18,18,17,,,,,703.1261716200024,None,,,,001,2021_May_07_1328,list_pa,2021.1.4,59.89017339953057,
sounds/droite.ogg,0.7,,4,0,4,0,0,19,19,30,,,,,704.6272592200039,None,,,,001,2021_May_07_1328,list_pa,2021.1.4,59.89017339953057,
sounds/gauche.ogg,0.7,,4,0,4,0,0,20,20,9,,,,,706.1272871200053,705.4410662000009,,,,001,2021_May_07_1328,list_pa,2021.1.4,59.89017339953057,
sounds/droite.ogg,0.7,,4,0,4,0,0,21,21,42,,,,,707.6272351200023,706.9419445000021,,,,001,2021_May_07_1328,list_pa,2021.1.4,59.89017339953057,
sounds/droite.ogg,0.7,,4,0,4,0,0,22,22,43,,,,,709.1284266200018,708.4424463000032,,,,001,2021_May_07_1328,list_pa,2021.1.4,59.89017339953057,
sounds/gauche.ogg,0.7,,4,0,4,0,0,23,23,24,,,,,710.6281697200029,709.9424817000036,,,,001,2021_May_07_1328,list_pa,2021.1.4,59.89017339953057,
sounds/gauche.ogg,0.7,,4,0,4,0,0,24,24,20,,,,,712.1285838200056,711.4427695000049,,,,001,2021_May_07_1328,list_pa,2021.1.4,59.89017339953057,
sounds/gauche.ogg,0.7,,4,0,4,0,0,25,25,18,,,,,713.628929120001,712.9429621000018,,,,001,2021_May_07_1328,list_pa,2021.1.4,59.89017339953057,
sounds/droite.ogg,0.7,,4,0,4,0,0,26,26,49,,,,,715.1282394200025,714.4433597000025,,,,001,2021_May_07_1328,list_pa,2021.1.4,59.89017339953057,
sounds/gauche.ogg,0.7,,4,0,4,0,0,27,27,7,,,,,716.6286379200028,715.9437350000007,,,,001,2021_May_07_1328,list_pa,2021.1.4,59.89017339953057,
sounds/droite.ogg,0.7,,4,0,4,0,0,28,28,39,,,,,718.1298059200053,717.4437124000033,,,,001,2021_May_07_1328,list_pa,2021.1.4,59.89017339953057,
sounds/droite.ogg,0.7,,4,0,4,0,0,29,29,26,,,,,719.6296153200019,718.9445636000019,,,,001,2021_May_07_1328,list_pa,2021.1.4,59.89017339953057,
sounds/gauche.ogg,0.7,,4,0,4,0,0,30,30,3,,,,,721.1295323200029,None,,,,001,2021_May_07_1328,list_pa,2021.1.4,59.89017339953057,
sounds/gauche.ogg,0.7,,4,0,4,0,0,31,31,15,,,,,722.6299444200049,721.9448435000013,,,,001,2021_May_07_1328,list_pa,2021.1.4,59.89017339953057,
sounds/gauche.ogg,0.7,,4,0,4,0,0,32,32,2,,,,,724.1304877200018,723.4454815000063,,,,001,2021_May_07_1328,list_pa,2021.1.4,59.89017339953057,
sounds/droite.ogg,0.7,,4,0,4,0,0,33,33,38,,,,,725.630802120002,None,,,,001,2021_May_07_1328,list_pa,2021.1.4,59.89017339953057,
sounds/droite.ogg,0.7,,4,0,4,0,0,34,34,46,,,,,727.1309971200026,726.4460334000032,,,,001,2021_May_07_1328,list_pa,2021.1.4,59.89017339953057,
sounds/gauche.ogg,0.7,,4,0,4,0,0,35,35,16,,,,,728.6310635200061,727.9464174000022,,,,001,2021_May_07_1328,list_pa,2021.1.4,59.89017339953057,
sounds/droite.ogg,0.7,,4,0,4,0,0,36,36,32,,,,,730.1311357200029,729.4468233000007,,,,001,2021_May_07_1328,list_pa,2021.1.4,59.89017339953057,
sounds/droite.ogg,0.7,,4,0,4,0,0,37,37,45,,,,,731.6315591200037,730.9471614000067,,,,001,2021_May_07_1328,list_pa,2021.1.4,59.89017339953057,
sounds/gauche.ogg,0.7,,4,0,4,0,0,38,38,4,,,,,733.1319040200033,732.4470437000055,,,,001,2021_May_07_1328,list_pa,2021.1.4,59.89017339953057,
sounds/gauche.ogg,0.7,,4,0,4,0,0,39,39,12,,,,,734.6324243199997,733.9477904000014,,,,001,2021_May_07_1328,list_pa,2021.1.4,59.89017339953057,
sounds/gauche.ogg,0.7,,4,0,4,0,0,40,40,22,,,,,736.1331393200016,735.4480666000018,,,,001,2021_May_07_1328,list_pa,2021.1.4,59.89017339953057,
sounds/droite.ogg,0.7,,4,0,4,0,0,41,41,29,,,,,737.6335238200045,736.9473159000045,,,,001,2021_May_07_1328,list_pa,2021.1.4,59.89017339953057,
sounds/droite.ogg,0.7,,4,0,4,0,0,42,42,37,,,,,739.1333058200034,738.4483348000067,,,,001,2021_May_07_1328,list_pa,2021.1.4,59.89017339953057,
sounds/gauche.ogg,0.7,,4,0,4,0,0,43,43,19,,,,,740.6341700200064,739.9489896000014,,,,001,2021_May_07_1328,list_pa,2021.1.4,59.89017339953057,
sounds/droite.ogg,0.7,,4,0,4,0,0,44,44,31,,,,,742.1343636200036,None,,,,001,2021_May_07_1328,list_pa,2021.1.4,59.89017339953057,
sounds/gauche.ogg,0.7,,4,0,4,0,0,45,45,14,,,,,743.6349456200041,742.9488592000052,,,,001,2021_May_07_1328,list_pa,2021.1.4,59.89017339953057,
sounds/gauche.ogg,0.7,,4,0,4,0,0,46,46,0,,,,,745.1350741200004,744.4496331000046,,,,001,2021_May_07_1328,list_pa,2021.1.4,59.89017339953057,
sounds/droite.ogg,0.7,,4,0,4,0,0,47,47,48,,,,,746.6353551200009,745.9499184000015,,,,001,2021_May_07_1328,list_pa,2021.1.4,59.89017339953057,
sounds/gauche.ogg,0.7,,4,0,4,0,0,48,48,11,,,,,748.1353665200004,747.450319100004,,,,001,2021_May_07_1328,list_pa,2021.1.4,59.89017339953057,
sounds/droite.ogg,0.7,,4,0,4,0,0,49,49,40,,,,,749.6355461200001,748.9506374000048,,,,001,2021_May_07_1328,list_pa,2021.1.4,59.89017339953057,
,,30,4,0,4,0,,,,,0,0,0,0,,,750.4833603000006,None,,001,2021_May_07_1328,list_pa,2021.1.4,59.89017339953057,
,,29,4,0,4,0,,,,,0,1,1,1,,,751.467590500004,None,,001,2021_May_07_1328,list_pa,2021.1.4,59.89017339953057,
,,28,4,0,4,0,,,,,0,2,2,2,,,752.4681392000057,None,,001,2021_May_07_1328,list_pa,2021.1.4,59.89017339953057,
,,27,4,0,4,0,,,,,0,3,3,3,,,753.4683464000045,None,,001,2021_May_07_1328,list_pa,2021.1.4,59.89017339953057,
,,26,4,0,4,0,,,,,0,4,4,4,,,754.4682809000005,None,,001,2021_May_07_1328,list_pa,2021.1.4,59.89017339953057,
,,25,4,0,4,0,,,,,0,5,5,5,,,755.4458044000057,None,,001,2021_May_07_1328,list_pa,2021.1.4,59.89017339953057,
,,24,4,0,4,0,,,,,0,6,6,6,,,756.4394185000056,None,,001,2021_May_07_1328,list_pa,2021.1.4,59.89017339953057,
,,23,4,0,4,0,,,,,0,7,7,7,,,757.4636872000046,None,,001,2021_May_07_1328,list_pa,2021.1.4,59.89017339953057,
,,22,4,0,4,0,,,,,0,8,8,8,,,3357.0472781999997,None,,001,2021_May_07_1328,list_pa,2021.1.4,59.89017339953057,
,,21,4,0,4,0,,,,,0,9,9,9,,,None,None,,001,2021_May_07_1328,list_pa,2021.1.4,59.89017339953057,
,,20,4,0,4,0,,,,,0,10,10,10,,,None,None,,001,2021_May_07_1328,list_pa,2021.1.4,59.89017339953057,
,,19,4,0,4,0,,,,,0,11,11,11,,,None,None,,001,2021_May_07_1328,list_pa,2021.1.4,59.89017339953057,
,,18,4,0,4,0,,,,,0,12,12,12,,,None,None,,001,2021_May_07_1328,list_pa,2021.1.4,59.89017339953057,
,,17,4,0,4,0,,,,,0,13,13,13,,,None,None,,001,2021_May_07_1328,list_pa,2021.1.4,59.89017339953057,
,,16,4,0,4,0,,,,,0,14,14,14,,,None,None,,001,2021_May_07_1328,list_pa,2021.1.4,59.89017339953057,
,,15,4,0,4,0,,,,,0,15,15,15,,,None,None,,001,2021_May_07_1328,list_pa,2021.1.4,59.89017339953057,
,,14,4,0,4,0,,,,,0,16,16,16,,,None,None,,001,2021_May_07_1328,list_pa,2021.1.4,59.89017339953057,
,,13,4,0,4,0,,,,,0,17,17,17,,,None,None,,001,2021_May_07_1328,list_pa,2021.1.4,59.89017339953057,
,,12,4,0,4,0,,,,,0,18,18,18,,,None,None,,001,2021_May_07_1328,list_pa,2021.1.4,59.89017339953057,
,,11,4,0,4,0,,,,,0,19,19,19,,,None,None,,001,2021_May_07_1328,list_pa,2021.1.4,59.89017339953057,
,,10,4,0,4,0,,,,,0,20,20,20,,,None,None,,001,2021_May_07_1328,list_pa,2021.1.4,59.89017339953057,
,,9,4,0,4,0,,,,,0,21,21,21,,,None,None,,001,2021_May_07_1328,list_pa,2021.1.4,59.89017339953057,
,,8,4,0,4,0,,,,,0,22,22,22,,,None,None,,001,2021_May_07_1328,list_pa,2021.1.4,59.89017339953057,
,,7,4,0,4,0,,,,,0,23,23,23,,,None,None,,001,2021_May_07_1328,list_pa,2021.1.4,59.89017339953057,
,,6,4,0,4,0,,,,,0,24,24,24,,,None,None,,001,2021_May_07_1328,list_pa,2021.1.4,59.89017339953057,
,,5,4,0,4,0,,,,,0,25,25,25,,,None,None,,001,2021_May_07_1328,list_pa,2021.1.4,59.89017339953057,
,,4,4,0,4,0,,,,,0,26,26,26,,,None,None,,001,2021_May_07_1328,list_pa,2021.1.4,59.89017339953057,
,,3,4,0,4,0,,,,,0,27,27,27,,,None,None,,001,2021_May_07_1328,list_pa,2021.1.4,59.89017339953057,
,,2,4,0,4,0,,,,,0,28,28,28,,,None,None,,001,2021_May_07_1328,list_pa,2021.1.4,59.89017339953057,
,,1,4,0,4,0,,,,,0,29,29,29,,,None,None,,001,2021_May_07_1328,list_pa,2021.1.4,59.89017339953057,
,,0,4,0,4,0,,,,,0,30,30,30,,,None,None,,001,2021_May_07_1328,list_pa,2021.1.4,59.89017339953057,
,,,4,0,4,0,,,,,,,,,,,,,,001,2021_May_07_1328,list_pa,2021.1.4,59.89017339953057,
