ExperimentName;Subject;Session;Chronos.BoxInfo;Clock.Information;DataFile.Basename;Display.RefreshRate;ExperimentVersion;Group;Hello.DEVICE;RandomSeed;RuntimeCapabilities;RuntimeVersion;RuntimeVersionExpected;SessionDate;SessionStartDateTimeUtc;SessionTime;StudioVersion;Block;EndTraining.DEVICE;Generalbloc;Generalbloc.Cycle;Generalbloc.Sample;Procedure[Block];Running[Block];TextDisplay1.DEVICE;TextDisplay2.DEVICE;TextTraining.DEVICE;time;VVInst.DEVICE[Block];Trial;correct;image;listVVTrial;listVVTrial.Cycle;listVVTrial.Sample;offset;Procedure[Trial];Running[Trial];SpatialTaskTraining;SpatialTaskTraining.Cycle;SpatialTaskTraining.Sample;VVInst.DEVICE[Trial];vvstimnoresp.ACC;vvstimnoresp.CRESP;vvstimnoresp.DurationError;vvstimnoresp.OnsetDelay;vvstimnoresp.OnsetTime;vvstimnoresp.OnsetToOnsetTime;vvstimnoresp.RESP;vvstimnoresp.RT;vvstimnoresp.RTTime;vvstimresp1.ACC;vvstimresp1.CRESP;vvstimresp1.DEVICE;vvstimresp1.DurationError;vvstimresp1.OnsetDelay;vvstimresp1.OnsetTime;vvstimresp1.OnsetToOnsetTime;vvstimresp1.RESP;vvstimresp1.RT;vvstimresp1.RTTime;vvstimresp2.ACC;vvstimresp2.CRESP;vvstimresp2.DEVICE;vvstimresp2.DurationError;vvstimresp2.OnsetDelay;vvstimresp2.OnsetTime;vvstimresp2.OnsetToOnsetTime;vvstimresp2.RESP;vvstimresp2.RT;vvstimresp2.RTTime;SubTrial;LISTVVRANDOM1;LISTVVRANDOM1.Cycle;LISTVVRANDOM1.Sample;LISTVVRANDOM2;Procedure[SubTrial];Running[SubTrial];VVR;VVRANDOM;VVRANDOMRESP.ACC;VVRANDOMRESP.CRESP;VVRANDOMRESP.DEVICE;VVRANDOMRESP.DurationError;VVRANDOMRESP.OnsetDelay;VVRANDOMRESP.OnsetTime;VVRANDOMRESP.OnsetToOnsetTime;VVRANDOMRESP.RESP;VVRANDOMRESP.RT;VVRANDOMRESP.RTTime
EXP2.2_290421;10004;1;<ChronosDeviceInfo><FriendlyName>MyChronos</FriendlyName><DeviceIndex>1</DeviceIndex><SerialNumber>CHR-04301-1186</SerialNumber><EBNVersion>3.0.3.80</EBNVersion><FirmwareVersion>1.33</FirmwareVersion><APIVersion>1.33</APIVersion><USBHostControllerVersion>2.0</USBHostControllerVersion><USBConnectionRoute>USB#ROOT_HUB20#4&9bd2e8a&0#{f18a0e88-c30c-11d0-8815-00a0c906bed8} + USB#VID_8087&PID_0024#5&3026c139&0&1#{f18a0e88-c30c-11d0-8815-00a0c906bed8}(1) + VID_2266&PID_0007(7)</USBConnectionRoute></ChronosDeviceInfo>;"<?xml version=""1.0""?>\n<Clock xmlns:dt=""urn:schemas-microsoft-com:datatypes""><Description dt:dt=""string"">E-Prime Primary Realtime Clock</Description><StartTime><Timestamp dt:dt=""int"">0</Timestamp><DateUtc dt:dt=""string"">2021-04-30T09:16:02Z</DateUtc></StartTime><FrequencyChanges><FrequencyChange><Frequency dt:dt=""r8"">2435566</Frequency><Timestamp dt:dt=""r8"">18505308075</Timestamp><Current dt:dt=""r8"">0</Current><DateUtc dt:dt=""string"">2021-04-30T09:16:02Z</DateUtc></FrequencyChange></FrequencyChanges></Clock>\n";EXP2.2_290421-10004-1;60.024;1.0.0.340;1;Chronos;1325870774;Full;3.0.3.80;3.0.3.80;04-30-2021;30/04/2021 09:16;11:16:02;3.0.3.82;1;Chronos;1;1;1;Training;Generalbloc;;;Chronos;pretest;;1;;;;;;;TRAININGVV;SpatialTaskTraining;1;1;1;Chronos;;;;;;;;;;;;;;;;;;;;;;;;;;;;;;1;1;1;1;1;blocVVstimTraining;LISTVVRANDOM1;VV_290421/875.png;VV_290421/880.png;0;;Chronos;-999999;-1;38638;0;5;830;39468
EXP2.2_290421;10004;1;<ChronosDeviceInfo><FriendlyName>MyChronos</FriendlyName><DeviceIndex>1</DeviceIndex><SerialNumber>CHR-04301-1186</SerialNumber><EBNVersion>3.0.3.80</EBNVersion><FirmwareVersion>1.33</FirmwareVersion><APIVersion>1.33</APIVersion><USBHostControllerVersion>2.0</USBHostControllerVersion><USBConnectionRoute>USB#ROOT_HUB20#4&9bd2e8a&0#{f18a0e88-c30c-11d0-8815-00a0c906bed8} + USB#VID_8087&PID_0024#5&3026c139&0&1#{f18a0e88-c30c-11d0-8815-00a0c906bed8}(1) + VID_2266&PID_0007(7)</USBConnectionRoute></ChronosDeviceInfo>;"<?xml version=""1.0""?>\n<Clock xmlns:dt=""urn:schemas-microsoft-com:datatypes""><Description dt:dt=""string"">E-Prime Primary Realtime Clock</Description><StartTime><Timestamp dt:dt=""int"">0</Timestamp><DateUtc dt:dt=""string"">2021-04-30T09:16:02Z</DateUtc></StartTime><FrequencyChanges><FrequencyChange><Frequency dt:dt=""r8"">2435566</Frequency><Timestamp dt:dt=""r8"">18505308075</Timestamp><Current dt:dt=""r8"">0</Current><DateUtc dt:dt=""string"">2021-04-30T09:16:02Z</DateUtc></FrequencyChange></FrequencyChanges></Clock>\n";EXP2.2_290421-10004-1;60.024;1.0.0.340;1;Chronos;1325870774;Full;3.0.3.80;3.0.3.80;04-30-2021;30/04/2021 09:16;11:16:02;3.0.3.82;1;Chronos;1;1;1;Training;Generalbloc;;;Chronos;pretest;;1;;;;;;;TRAININGVV;SpatialTaskTraining;1;1;1;Chronos;;;;;;;;;;;;;;;;;;;;;;;;;;;;;;2;1;1;2;3;blocVVstimTraining;LISTVVRANDOM1;VV_290421/885.png;VV_290421/890.png;0;;Chronos;-999999;-1;41487;0;5;1495;42982
EXP2.2_290421;10004;1;<ChronosDeviceInfo><FriendlyName>MyChronos</FriendlyName><DeviceIndex>1</DeviceIndex><SerialNumber>CHR-04301-1186</SerialNumber><EBNVersion>3.0.3.80</EBNVersion><FirmwareVersion>1.33</FirmwareVersion><APIVersion>1.33</APIVersion><USBHostControllerVersion>2.0</USBHostControllerVersion><USBConnectionRoute>USB#ROOT_HUB20#4&9bd2e8a&0#{f18a0e88-c30c-11d0-8815-00a0c906bed8} + USB#VID_8087&PID_0024#5&3026c139&0&1#{f18a0e88-c30c-11d0-8815-00a0c906bed8}(1) + VID_2266&PID_0007(7)</USBConnectionRoute></ChronosDeviceInfo>;"<?xml version=""1.0""?>\n<Clock xmlns:dt=""urn:schemas-microsoft-com:datatypes""><Description dt:dt=""string"">E-Prime Primary Realtime Clock</Description><StartTime><Timestamp dt:dt=""int"">0</Timestamp><DateUtc dt:dt=""string"">2021-04-30T09:16:02Z</DateUtc></StartTime><FrequencyChanges><FrequencyChange><Frequency dt:dt=""r8"">2435566</Frequency><Timestamp dt:dt=""r8"">18505308075</Timestamp><Current dt:dt=""r8"">0</Current><DateUtc dt:dt=""string"">2021-04-30T09:16:02Z</DateUtc></FrequencyChange></FrequencyChanges></Clock>\n";EXP2.2_290421-10004-1;60.024;1.0.0.340;1;Chronos;1325870774;Full;3.0.3.80;3.0.3.80;04-30-2021;30/04/2021 09:16;11:16:02;3.0.3.82;1;Chronos;1;1;1;Training;Generalbloc;;;Chronos;pretest;;1;;;;;;;TRAININGVV;SpatialTaskTraining;1;1;1;Chronos;;;;;;;;;;;;;;;;;;;;;;;;;;;;;;3;1;1;3;5;blocVVstimTraining;LISTVVRANDOM1;VV_290421/895.png;VV_290421/900.png;0;;Chronos;-999999;0;45003;0;5;1151;46154
EXP2.2_290421;10004;1;<ChronosDeviceInfo><FriendlyName>MyChronos</FriendlyName><DeviceIndex>1</DeviceIndex><SerialNumber>CHR-04301-1186</SerialNumber><EBNVersion>3.0.3.80</EBNVersion><FirmwareVersion>1.33</FirmwareVersion><APIVersion>1.33</APIVersion><USBHostControllerVersion>2.0</USBHostControllerVersion><USBConnectionRoute>USB#ROOT_HUB20#4&9bd2e8a&0#{f18a0e88-c30c-11d0-8815-00a0c906bed8} + USB#VID_8087&PID_0024#5&3026c139&0&1#{f18a0e88-c30c-11d0-8815-00a0c906bed8}(1) + VID_2266&PID_0007(7)</USBConnectionRoute></ChronosDeviceInfo>;"<?xml version=""1.0""?>\n<Clock xmlns:dt=""urn:schemas-microsoft-com:datatypes""><Description dt:dt=""string"">E-Prime Primary Realtime Clock</Description><StartTime><Timestamp dt:dt=""int"">0</Timestamp><DateUtc dt:dt=""string"">2021-04-30T09:16:02Z</DateUtc></StartTime><FrequencyChanges><FrequencyChange><Frequency dt:dt=""r8"">2435566</Frequency><Timestamp dt:dt=""r8"">18505308075</Timestamp><Current dt:dt=""r8"">0</Current><DateUtc dt:dt=""string"">2021-04-30T09:16:02Z</DateUtc></FrequencyChange></FrequencyChanges></Clock>\n";EXP2.2_290421-10004-1;60.024;1.0.0.340;1;Chronos;1325870774;Full;3.0.3.80;3.0.3.80;04-30-2021;30/04/2021 09:16;11:16:02;3.0.3.82;1;Chronos;1;1;1;Training;Generalbloc;;;Chronos;pretest;;1;;;;;;;TRAININGVV;SpatialTaskTraining;1;1;1;Chronos;;;;;;;;;;;;;;;;;;;;;;;;;;;;;;4;1;1;4;7;blocVVstimTraining;LISTVVRANDOM1;VV_290421/905.png;VV_290421/910.png;0;;Chronos;-999999;0;48168;0;5;540;48708
EXP2.2_290421;10004;1;<ChronosDeviceInfo><FriendlyName>MyChronos</FriendlyName><DeviceIndex>1</DeviceIndex><SerialNumber>CHR-04301-1186</SerialNumber><EBNVersion>3.0.3.80</EBNVersion><FirmwareVersion>1.33</FirmwareVersion><APIVersion>1.33</APIVersion><USBHostControllerVersion>2.0</USBHostControllerVersion><USBConnectionRoute>USB#ROOT_HUB20#4&9bd2e8a&0#{f18a0e88-c30c-11d0-8815-00a0c906bed8} + USB#VID_8087&PID_0024#5&3026c139&0&1#{f18a0e88-c30c-11d0-8815-00a0c906bed8}(1) + VID_2266&PID_0007(7)</USBConnectionRoute></ChronosDeviceInfo>;"<?xml version=""1.0""?>\n<Clock xmlns:dt=""urn:schemas-microsoft-com:datatypes""><Description dt:dt=""string"">E-Prime Primary Realtime Clock</Description><StartTime><Timestamp dt:dt=""int"">0</Timestamp><DateUtc dt:dt=""string"">2021-04-30T09:16:02Z</DateUtc></StartTime><FrequencyChanges><FrequencyChange><Frequency dt:dt=""r8"">2435566</Frequency><Timestamp dt:dt=""r8"">18505308075</Timestamp><Current dt:dt=""r8"">0</Current><DateUtc dt:dt=""string"">2021-04-30T09:16:02Z</DateUtc></FrequencyChange></FrequencyChanges></Clock>\n";EXP2.2_290421-10004-1;60.024;1.0.0.340;1;Chronos;1325870774;Full;3.0.3.80;3.0.3.80;04-30-2021;30/04/2021 09:16;11:16:02;3.0.3.82;1;Chronos;1;1;1;Training;Generalbloc;;;Chronos;pretest;;1;;;;;;;TRAININGVV;SpatialTaskTraining;1;1;1;Chronos;;;;;;;;;;;;;;;;;;;;;;;;;;;;;;5;1;1;5;9;blocVVstimTraining;LISTVVRANDOM1;VV_290421/915.png;VV_290421/920.png;0;;Chronos;-999999;0;50734;0;5;1329;52063
EXP2.2_290421;10004;1;<ChronosDeviceInfo><FriendlyName>MyChronos</FriendlyName><DeviceIndex>1</DeviceIndex><SerialNumber>CHR-04301-1186</SerialNumber><EBNVersion>3.0.3.80</EBNVersion><FirmwareVersion>1.33</FirmwareVersion><APIVersion>1.33</APIVersion><USBHostControllerVersion>2.0</USBHostControllerVersion><USBConnectionRoute>USB#ROOT_HUB20#4&9bd2e8a&0#{f18a0e88-c30c-11d0-8815-00a0c906bed8} + USB#VID_8087&PID_0024#5&3026c139&0&1#{f18a0e88-c30c-11d0-8815-00a0c906bed8}(1) + VID_2266&PID_0007(7)</USBConnectionRoute></ChronosDeviceInfo>;"<?xml version=""1.0""?>\n<Clock xmlns:dt=""urn:schemas-microsoft-com:datatypes""><Description dt:dt=""string"">E-Prime Primary Realtime Clock</Description><StartTime><Timestamp dt:dt=""int"">0</Timestamp><DateUtc dt:dt=""string"">2021-04-30T09:16:02Z</DateUtc></StartTime><FrequencyChanges><FrequencyChange><Frequency dt:dt=""r8"">2435566</Frequency><Timestamp dt:dt=""r8"">18505308075</Timestamp><Current dt:dt=""r8"">0</Current><DateUtc dt:dt=""string"">2021-04-30T09:16:02Z</DateUtc></FrequencyChange></FrequencyChanges></Clock>\n";EXP2.2_290421-10004-1;60.024;1.0.0.340;1;Chronos;1325870774;Full;3.0.3.80;3.0.3.80;04-30-2021;30/04/2021 09:16;11:16:02;3.0.3.82;1;Chronos;1;1;1;Training;Generalbloc;;;Chronos;pretest;;1;;;;;;;TRAININGVV;SpatialTaskTraining;1;1;1;Chronos;;;;;;;;;;;;;;;;;;;;;;;;;;;;;;6;1;1;6;11;blocVVstimTraining;LISTVVRANDOM1;VV_290421/925.png;VV_290421/875.png;0;;Chronos;-999999;-1;54082;0;1;2800;56882
EXP2.2_290421;10004;1;<ChronosDeviceInfo><FriendlyName>MyChronos</FriendlyName><DeviceIndex>1</DeviceIndex><SerialNumber>CHR-04301-1186</SerialNumber><EBNVersion>3.0.3.80</EBNVersion><FirmwareVersion>1.33</FirmwareVersion><APIVersion>1.33</APIVersion><USBHostControllerVersion>2.0</USBHostControllerVersion><USBConnectionRoute>USB#ROOT_HUB20#4&9bd2e8a&0#{f18a0e88-c30c-11d0-8815-00a0c906bed8} + USB#VID_8087&PID_0024#5&3026c139&0&1#{f18a0e88-c30c-11d0-8815-00a0c906bed8}(1) + VID_2266&PID_0007(7)</USBConnectionRoute></ChronosDeviceInfo>;"<?xml version=""1.0""?>\n<Clock xmlns:dt=""urn:schemas-microsoft-com:datatypes""><Description dt:dt=""string"">E-Prime Primary Realtime Clock</Description><StartTime><Timestamp dt:dt=""int"">0</Timestamp><DateUtc dt:dt=""string"">2021-04-30T09:16:02Z</DateUtc></StartTime><FrequencyChanges><FrequencyChange><Frequency dt:dt=""r8"">2435566</Frequency><Timestamp dt:dt=""r8"">18505308075</Timestamp><Current dt:dt=""r8"">0</Current><DateUtc dt:dt=""string"">2021-04-30T09:16:02Z</DateUtc></FrequencyChange></FrequencyChanges></Clock>\n";EXP2.2_290421-10004-1;60.024;1.0.0.340;1;Chronos;1325870774;Full;3.0.3.80;3.0.3.80;04-30-2021;30/04/2021 09:16;11:16:02;3.0.3.82;2;;2;1;2;TESTVV;Generalbloc;;;;pretest;Chronos;1;5;VV_290421/905.png;7;1;1;5;blocVVstim;listVVTrial;;;;Chronos;0;;0;0;105430;199;;0;0;0;5;Chronos;1;-1;105629;300;1;1353;106982;0;5;Chronos;0;0;105929;0;1;1053;106982;;;;;;;;;;;;;;;;;;;
EXP2.2_290421;10004;1;<ChronosDeviceInfo><FriendlyName>MyChronos</FriendlyName><DeviceIndex>1</DeviceIndex><SerialNumber>CHR-04301-1186</SerialNumber><EBNVersion>3.0.3.80</EBNVersion><FirmwareVersion>1.33</FirmwareVersion><APIVersion>1.33</APIVersion><USBHostControllerVersion>2.0</USBHostControllerVersion><USBConnectionRoute>USB#ROOT_HUB20#4&9bd2e8a&0#{f18a0e88-c30c-11d0-8815-00a0c906bed8} + USB#VID_8087&PID_0024#5&3026c139&0&1#{f18a0e88-c30c-11d0-8815-00a0c906bed8}(1) + VID_2266&PID_0007(7)</USBConnectionRoute></ChronosDeviceInfo>;"<?xml version=""1.0""?>\n<Clock xmlns:dt=""urn:schemas-microsoft-com:datatypes""><Description dt:dt=""string"">E-Prime Primary Realtime Clock</Description><StartTime><Timestamp dt:dt=""int"">0</Timestamp><DateUtc dt:dt=""string"">2021-04-30T09:16:02Z</DateUtc></StartTime><FrequencyChanges><FrequencyChange><Frequency dt:dt=""r8"">2435566</Frequency><Timestamp dt:dt=""r8"">18505308075</Timestamp><Current dt:dt=""r8"">0</Current><DateUtc dt:dt=""string"">2021-04-30T09:16:02Z</DateUtc></FrequencyChange></FrequencyChanges></Clock>\n";EXP2.2_290421-10004-1;60.024;1.0.0.340;1;Chronos;1325870774;Full;3.0.3.80;3.0.3.80;04-30-2021;30/04/2021 09:16;11:16:02;3.0.3.82;2;;2;1;2;TESTVV;Generalbloc;;;;pretest;Chronos;2;1;VV_290421/895.png;5;1;2;-5;blocVVstim;listVVTrial;;;;Chronos;0;;0;0;108512;200;;0;0;0;1;Chronos;0;0;108712;299;5;938;109650;0;1;Chronos;1;-1;109011;0;5;639;109650;;;;;;;;;;;;;;;;;;;
EXP2.2_290421;10004;1;<ChronosDeviceInfo><FriendlyName>MyChronos</FriendlyName><DeviceIndex>1</DeviceIndex><SerialNumber>CHR-04301-1186</SerialNumber><EBNVersion>3.0.3.80</EBNVersion><FirmwareVersion>1.33</FirmwareVersion><APIVersion>1.33</APIVersion><USBHostControllerVersion>2.0</USBHostControllerVersion><USBConnectionRoute>USB#ROOT_HUB20#4&9bd2e8a&0#{f18a0e88-c30c-11d0-8815-00a0c906bed8} + USB#VID_8087&PID_0024#5&3026c139&0&1#{f18a0e88-c30c-11d0-8815-00a0c906bed8}(1) + VID_2266&PID_0007(7)</USBConnectionRoute></ChronosDeviceInfo>;"<?xml version=""1.0""?>\n<Clock xmlns:dt=""urn:schemas-microsoft-com:datatypes""><Description dt:dt=""string"">E-Prime Primary Realtime Clock</Description><StartTime><Timestamp dt:dt=""int"">0</Timestamp><DateUtc dt:dt=""string"">2021-04-30T09:16:02Z</DateUtc></StartTime><FrequencyChanges><FrequencyChange><Frequency dt:dt=""r8"">2435566</Frequency><Timestamp dt:dt=""r8"">18505308075</Timestamp><Current dt:dt=""r8"">0</Current><DateUtc dt:dt=""string"">2021-04-30T09:16:02Z</DateUtc></FrequencyChange></FrequencyChanges></Clock>\n";EXP2.2_290421-10004-1;60.024;1.0.0.340;1;Chronos;1325870774;Full;3.0.3.80;3.0.3.80;04-30-2021;30/04/2021 09:16;11:16:02;3.0.3.82;2;;2;1;2;TESTVV;Generalbloc;;;;pretest;Chronos;3;15;VV_290421/900.png;6;1;3;0;blocVVstim;listVVTrial;;;;Chronos;0;;0;-1;111177;200;;0;0;0;15;Chronos;0;0;111377;300;5;1054;112431;0;15;Chronos;0;0;111677;0;5;754;112431;;;;;;;;;;;;;;;;;;;
EXP2.2_290421;10004;1;<ChronosDeviceInfo><FriendlyName>MyChronos</FriendlyName><DeviceIndex>1</DeviceIndex><SerialNumber>CHR-04301-1186</SerialNumber><EBNVersion>3.0.3.80</EBNVersion><FirmwareVersion>1.33</FirmwareVersion><APIVersion>1.33</APIVersion><USBHostControllerVersion>2.0</USBHostControllerVersion><USBConnectionRoute>USB#ROOT_HUB20#4&9bd2e8a&0#{f18a0e88-c30c-11d0-8815-00a0c906bed8} + USB#VID_8087&PID_0024#5&3026c139&0&1#{f18a0e88-c30c-11d0-8815-00a0c906bed8}(1) + VID_2266&PID_0007(7)</USBConnectionRoute></ChronosDeviceInfo>;"<?xml version=""1.0""?>\n<Clock xmlns:dt=""urn:schemas-microsoft-com:datatypes""><Description dt:dt=""string"">E-Prime Primary Realtime Clock</Description><StartTime><Timestamp dt:dt=""int"">0</Timestamp><DateUtc dt:dt=""string"">2021-04-30T09:16:02Z</DateUtc></StartTime><FrequencyChanges><FrequencyChange><Frequency dt:dt=""r8"">2435566</Frequency><Timestamp dt:dt=""r8"">18505308075</Timestamp><Current dt:dt=""r8"">0</Current><DateUtc dt:dt=""string"">2021-04-30T09:16:02Z</DateUtc></FrequencyChange></FrequencyChanges></Clock>\n";EXP2.2_290421-10004-1;60.024;1.0.0.340;1;Chronos;1325870774;Full;3.0.3.80;3.0.3.80;04-30-2021;30/04/2021 09:16;11:16:02;3.0.3.82;2;;2;1;2;TESTVV;Generalbloc;;;;pretest;Chronos;4;1;VV_290421/895.png;5;1;4;-5;blocVVstim;listVVTrial;;;;Chronos;0;;0;0;113960;200;;0;0;1;1;Chronos;0;0;114160;299;1;701;114861;1;1;Chronos;1;-1;114459;0;1;402;114861;;;;;;;;;;;;;;;;;;;
EXP2.2_290421;10004;1;<ChronosDeviceInfo><FriendlyName>MyChronos</FriendlyName><DeviceIndex>1</DeviceIndex><SerialNumber>CHR-04301-1186</SerialNumber><EBNVersion>3.0.3.80</EBNVersion><FirmwareVersion>1.33</FirmwareVersion><APIVersion>1.33</APIVersion><USBHostControllerVersion>2.0</USBHostControllerVersion><USBConnectionRoute>USB#ROOT_HUB20#4&9bd2e8a&0#{f18a0e88-c30c-11d0-8815-00a0c906bed8} + USB#VID_8087&PID_0024#5&3026c139&0&1#{f18a0e88-c30c-11d0-8815-00a0c906bed8}(1) + VID_2266&PID_0007(7)</USBConnectionRoute></ChronosDeviceInfo>;"<?xml version=""1.0""?>\n<Clock xmlns:dt=""urn:schemas-microsoft-com:datatypes""><Description dt:dt=""string"">E-Prime Primary Realtime Clock</Description><StartTime><Timestamp dt:dt=""int"">0</Timestamp><DateUtc dt:dt=""string"">2021-04-30T09:16:02Z</DateUtc></StartTime><FrequencyChanges><FrequencyChange><Frequency dt:dt=""r8"">2435566</Frequency><Timestamp dt:dt=""r8"">18505308075</Timestamp><Current dt:dt=""r8"">0</Current><DateUtc dt:dt=""string"">2021-04-30T09:16:02Z</DateUtc></FrequencyChange></FrequencyChanges></Clock>\n";EXP2.2_290421-10004-1;60.024;1.0.0.340;1;Chronos;1325870774;Full;3.0.3.80;3.0.3.80;04-30-2021;30/04/2021 09:16;11:16:02;3.0.3.82;2;;2;1;2;TESTVV;Generalbloc;;;;pretest;Chronos;5;1;VV_290421/875.png;1;1;5;-25;blocVVstim;listVVTrial;;;;Chronos;0;;0;-1;116375;200;;0;0;1;1;Chronos;0;0;116575;300;1;1131;117706;1;1;Chronos;0;0;116875;0;1;831;117706;;;;;;;;;;;;;;;;;;;
EXP2.2_290421;10004;1;<ChronosDeviceInfo><FriendlyName>MyChronos</FriendlyName><DeviceIndex>1</DeviceIndex><SerialNumber>CHR-04301-1186</SerialNumber><EBNVersion>3.0.3.80</EBNVersion><FirmwareVersion>1.33</FirmwareVersion><APIVersion>1.33</APIVersion><USBHostControllerVersion>2.0</USBHostControllerVersion><USBConnectionRoute>USB#ROOT_HUB20#4&9bd2e8a&0#{f18a0e88-c30c-11d0-8815-00a0c906bed8} + USB#VID_8087&PID_0024#5&3026c139&0&1#{f18a0e88-c30c-11d0-8815-00a0c906bed8}(1) + VID_2266&PID_0007(7)</USBConnectionRoute></ChronosDeviceInfo>;"<?xml version=""1.0""?>\n<Clock xmlns:dt=""urn:schemas-microsoft-com:datatypes""><Description dt:dt=""string"">E-Prime Primary Realtime Clock</Description><StartTime><Timestamp dt:dt=""int"">0</Timestamp><DateUtc dt:dt=""string"">2021-04-30T09:16:02Z</DateUtc></StartTime><FrequencyChanges><FrequencyChange><Frequency dt:dt=""r8"">2435566</Frequency><Timestamp dt:dt=""r8"">18505308075</Timestamp><Current dt:dt=""r8"">0</Current><DateUtc dt:dt=""string"">2021-04-30T09:16:02Z</DateUtc></FrequencyChange></FrequencyChanges></Clock>\n";EXP2.2_290421-10004-1;60.024;1.0.0.340;1;Chronos;1325870774;Full;3.0.3.80;3.0.3.80;04-30-2021;30/04/2021 09:16;11:16:02;3.0.3.82;2;;2;1;2;TESTVV;Generalbloc;;;;pretest;Chronos;6;5;VV_290421/925.png;11;1;6;25;blocVVstim;listVVTrial;;;;Chronos;0;;0;-1;119224;200;;0;0;1;5;Chronos;0;0;119424;300;5;1335;120759;1;5;Chronos;0;0;119724;0;5;1035;120759;;;;;;;;;;;;;;;;;;;
EXP2.2_290421;10004;1;<ChronosDeviceInfo><FriendlyName>MyChronos</FriendlyName><DeviceIndex>1</DeviceIndex><SerialNumber>CHR-04301-1186</SerialNumber><EBNVersion>3.0.3.80</EBNVersion><FirmwareVersion>1.33</FirmwareVersion><APIVersion>1.33</APIVersion><USBHostControllerVersion>2.0</USBHostControllerVersion><USBConnectionRoute>USB#ROOT_HUB20#4&9bd2e8a&0#{f18a0e88-c30c-11d0-8815-00a0c906bed8} + USB#VID_8087&PID_0024#5&3026c139&0&1#{f18a0e88-c30c-11d0-8815-00a0c906bed8}(1) + VID_2266&PID_0007(7)</USBConnectionRoute></ChronosDeviceInfo>;"<?xml version=""1.0""?>\n<Clock xmlns:dt=""urn:schemas-microsoft-com:datatypes""><Description dt:dt=""string"">E-Prime Primary Realtime Clock</Description><StartTime><Timestamp dt:dt=""int"">0</Timestamp><DateUtc dt:dt=""string"">2021-04-30T09:16:02Z</DateUtc></StartTime><FrequencyChanges><FrequencyChange><Frequency dt:dt=""r8"">2435566</Frequency><Timestamp dt:dt=""r8"">18505308075</Timestamp><Current dt:dt=""r8"">0</Current><DateUtc dt:dt=""string"">2021-04-30T09:16:02Z</DateUtc></FrequencyChange></FrequencyChanges></Clock>\n";EXP2.2_290421-10004-1;60.024;1.0.0.340;1;Chronos;1325870774;Full;3.0.3.80;3.0.3.80;04-30-2021;30/04/2021 09:16;11:16:02;3.0.3.82;2;;2;1;2;TESTVV;Generalbloc;;;;pretest;Chronos;7;5;VV_290421/905.png;7;1;7;5;blocVVstim;listVVTrial;;;;Chronos;0;;0;-1;122273;200;;0;0;1;5;Chronos;0;0;122473;300;5;1155;123628;1;5;Chronos;0;0;122773;0;5;855;123628;;;;;;;;;;;;;;;;;;;
EXP2.2_290421;10004;1;<ChronosDeviceInfo><FriendlyName>MyChronos</FriendlyName><DeviceIndex>1</DeviceIndex><SerialNumber>CHR-04301-1186</SerialNumber><EBNVersion>3.0.3.80</EBNVersion><FirmwareVersion>1.33</FirmwareVersion><APIVersion>1.33</APIVersion><USBHostControllerVersion>2.0</USBHostControllerVersion><USBConnectionRoute>USB#ROOT_HUB20#4&9bd2e8a&0#{f18a0e88-c30c-11d0-8815-00a0c906bed8} + USB#VID_8087&PID_0024#5&3026c139&0&1#{f18a0e88-c30c-11d0-8815-00a0c906bed8}(1) + VID_2266&PID_0007(7)</USBConnectionRoute></ChronosDeviceInfo>;"<?xml version=""1.0""?>\n<Clock xmlns:dt=""urn:schemas-microsoft-com:datatypes""><Description dt:dt=""string"">E-Prime Primary Realtime Clock</Description><StartTime><Timestamp dt:dt=""int"">0</Timestamp><DateUtc dt:dt=""string"">2021-04-30T09:16:02Z</DateUtc></StartTime><FrequencyChanges><FrequencyChange><Frequency dt:dt=""r8"">2435566</Frequency><Timestamp dt:dt=""r8"">18505308075</Timestamp><Current dt:dt=""r8"">0</Current><DateUtc dt:dt=""string"">2021-04-30T09:16:02Z</DateUtc></FrequencyChange></FrequencyChanges></Clock>\n";EXP2.2_290421-10004-1;60.024;1.0.0.340;1;Chronos;1325870774;Full;3.0.3.80;3.0.3.80;04-30-2021;30/04/2021 09:16;11:16:02;3.0.3.82;2;;2;1;2;TESTVV;Generalbloc;;;;pretest;Chronos;8;1;VV_290421/890.png;4;1;8;-10;blocVVstim;listVVTrial;;;;Chronos;0;;0;-1;125155;200;;0;0;0;1;Chronos;0;0;125355;300;5;894;126249;0;1;Chronos;0;0;125655;0;5;594;126249;;;;;;;;;;;;;;;;;;;
EXP2.2_290421;10004;1;<ChronosDeviceInfo><FriendlyName>MyChronos</FriendlyName><DeviceIndex>1</DeviceIndex><SerialNumber>CHR-04301-1186</SerialNumber><EBNVersion>3.0.3.80</EBNVersion><FirmwareVersion>1.33</FirmwareVersion><APIVersion>1.33</APIVersion><USBHostControllerVersion>2.0</USBHostControllerVersion><USBConnectionRoute>USB#ROOT_HUB20#4&9bd2e8a&0#{f18a0e88-c30c-11d0-8815-00a0c906bed8} + USB#VID_8087&PID_0024#5&3026c139&0&1#{f18a0e88-c30c-11d0-8815-00a0c906bed8}(1) + VID_2266&PID_0007(7)</USBConnectionRoute></ChronosDeviceInfo>;"<?xml version=""1.0""?>\n<Clock xmlns:dt=""urn:schemas-microsoft-com:datatypes""><Description dt:dt=""string"">E-Prime Primary Realtime Clock</Description><StartTime><Timestamp dt:dt=""int"">0</Timestamp><DateUtc dt:dt=""string"">2021-04-30T09:16:02Z</DateUtc></StartTime><FrequencyChanges><FrequencyChange><Frequency dt:dt=""r8"">2435566</Frequency><Timestamp dt:dt=""r8"">18505308075</Timestamp><Current dt:dt=""r8"">0</Current><DateUtc dt:dt=""string"">2021-04-30T09:16:02Z</DateUtc></FrequencyChange></FrequencyChanges></Clock>\n";EXP2.2_290421-10004-1;60.024;1.0.0.340;1;Chronos;1325870774;Full;3.0.3.80;3.0.3.80;04-30-2021;30/04/2021 09:16;11:16:02;3.0.3.82;2;;2;1;2;TESTVV;Generalbloc;;;;pretest;Chronos;9;1;VV_290421/875.png;1;1;9;-25;blocVVstim;listVVTrial;;;;Chronos;0;;0;-1;127771;200;;0;0;0;1;Chronos;0;0;127971;300;5;2084;130055;0;1;Chronos;0;0;128271;0;5;1784;130055;;;;;;;;;;;;;;;;;;;
EXP2.2_290421;10004;1;<ChronosDeviceInfo><FriendlyName>MyChronos</FriendlyName><DeviceIndex>1</DeviceIndex><SerialNumber>CHR-04301-1186</SerialNumber><EBNVersion>3.0.3.80</EBNVersion><FirmwareVersion>1.33</FirmwareVersion><APIVersion>1.33</APIVersion><USBHostControllerVersion>2.0</USBHostControllerVersion><USBConnectionRoute>USB#ROOT_HUB20#4&9bd2e8a&0#{f18a0e88-c30c-11d0-8815-00a0c906bed8} + USB#VID_8087&PID_0024#5&3026c139&0&1#{f18a0e88-c30c-11d0-8815-00a0c906bed8}(1) + VID_2266&PID_0007(7)</USBConnectionRoute></ChronosDeviceInfo>;"<?xml version=""1.0""?>\n<Clock xmlns:dt=""urn:schemas-microsoft-com:datatypes""><Description dt:dt=""string"">E-Prime Primary Realtime Clock</Description><StartTime><Timestamp dt:dt=""int"">0</Timestamp><DateUtc dt:dt=""string"">2021-04-30T09:16:02Z</DateUtc></StartTime><FrequencyChanges><FrequencyChange><Frequency dt:dt=""r8"">2435566</Frequency><Timestamp dt:dt=""r8"">18505308075</Timestamp><Current dt:dt=""r8"">0</Current><DateUtc dt:dt=""string"">2021-04-30T09:16:02Z</DateUtc></FrequencyChange></FrequencyChanges></Clock>\n";EXP2.2_290421-10004-1;60.024;1.0.0.340;1;Chronos;1325870774;Full;3.0.3.80;3.0.3.80;04-30-2021;30/04/2021 09:16;11:16:02;3.0.3.82;2;;2;1;2;TESTVV;Generalbloc;;;;pretest;Chronos;10;1;VV_290421/880.png;2;1;10;-20;blocVVstim;listVVTrial;;;;Chronos;0;;0;-1;131586;200;;0;0;1;1;Chronos;0;0;131786;300;1;686;132472;1;1;Chronos;0;0;132086;0;1;386;132472;;;;;;;;;;;;;;;;;;;
EXP2.2_290421;10004;1;<ChronosDeviceInfo><FriendlyName>MyChronos</FriendlyName><DeviceIndex>1</DeviceIndex><SerialNumber>CHR-04301-1186</SerialNumber><EBNVersion>3.0.3.80</EBNVersion><FirmwareVersion>1.33</FirmwareVersion><APIVersion>1.33</APIVersion><USBHostControllerVersion>2.0</USBHostControllerVersion><USBConnectionRoute>USB#ROOT_HUB20#4&9bd2e8a&0#{f18a0e88-c30c-11d0-8815-00a0c906bed8} + USB#VID_8087&PID_0024#5&3026c139&0&1#{f18a0e88-c30c-11d0-8815-00a0c906bed8}(1) + VID_2266&PID_0007(7)</USBConnectionRoute></ChronosDeviceInfo>;"<?xml version=""1.0""?>\n<Clock xmlns:dt=""urn:schemas-microsoft-com:datatypes""><Description dt:dt=""string"">E-Prime Primary Realtime Clock</Description><StartTime><Timestamp dt:dt=""int"">0</Timestamp><DateUtc dt:dt=""string"">2021-04-30T09:16:02Z</DateUtc></StartTime><FrequencyChanges><FrequencyChange><Frequency dt:dt=""r8"">2435566</Frequency><Timestamp dt:dt=""r8"">18505308075</Timestamp><Current dt:dt=""r8"">0</Current><DateUtc dt:dt=""string"">2021-04-30T09:16:02Z</DateUtc></FrequencyChange></FrequencyChanges></Clock>\n";EXP2.2_290421-10004-1;60.024;1.0.0.340;1;Chronos;1325870774;Full;3.0.3.80;3.0.3.80;04-30-2021;30/04/2021 09:16;11:16:02;3.0.3.82;2;;2;1;2;TESTVV;Generalbloc;;;;pretest;Chronos;11;1;VV_290421/890.png;4;1;11;-10;blocVVstim;listVVTrial;;;;Chronos;0;;0;-1;133985;200;;0;0;1;1;Chronos;0;0;134185;300;1;697;134882;1;1;Chronos;0;0;134485;0;1;397;134882;;;;;;;;;;;;;;;;;;;
EXP2.2_290421;10004;1;<ChronosDeviceInfo><FriendlyName>MyChronos</FriendlyName><DeviceIndex>1</DeviceIndex><SerialNumber>CHR-04301-1186</SerialNumber><EBNVersion>3.0.3.80</EBNVersion><FirmwareVersion>1.33</FirmwareVersion><APIVersion>1.33</APIVersion><USBHostControllerVersion>2.0</USBHostControllerVersion><USBConnectionRoute>USB#ROOT_HUB20#4&9bd2e8a&0#{f18a0e88-c30c-11d0-8815-00a0c906bed8} + USB#VID_8087&PID_0024#5&3026c139&0&1#{f18a0e88-c30c-11d0-8815-00a0c906bed8}(1) + VID_2266&PID_0007(7)</USBConnectionRoute></ChronosDeviceInfo>;"<?xml version=""1.0""?>\n<Clock xmlns:dt=""urn:schemas-microsoft-com:datatypes""><Description dt:dt=""string"">E-Prime Primary Realtime Clock</Description><StartTime><Timestamp dt:dt=""int"">0</Timestamp><DateUtc dt:dt=""string"">2021-04-30T09:16:02Z</DateUtc></StartTime><FrequencyChanges><FrequencyChange><Frequency dt:dt=""r8"">2435566</Frequency><Timestamp dt:dt=""r8"">18505308075</Timestamp><Current dt:dt=""r8"">0</Current><DateUtc dt:dt=""string"">2021-04-30T09:16:02Z</DateUtc></FrequencyChange></FrequencyChanges></Clock>\n";EXP2.2_290421-10004-1;60.024;1.0.0.340;1;Chronos;1325870774;Full;3.0.3.80;3.0.3.80;04-30-2021;30/04/2021 09:16;11:16:02;3.0.3.82;2;;2;1;2;TESTVV;Generalbloc;;;;pretest;Chronos;12;5;VV_290421/910.png;8;1;12;10;blocVVstim;listVVTrial;;;;Chronos;0;;0;-1;136401;200;;0;0;1;5;Chronos;0;0;136601;300;5;780;137381;1;5;Chronos;0;0;136901;0;5;480;137381;;;;;;;;;;;;;;;;;;;
EXP2.2_290421;10004;1;<ChronosDeviceInfo><FriendlyName>MyChronos</FriendlyName><DeviceIndex>1</DeviceIndex><SerialNumber>CHR-04301-1186</SerialNumber><EBNVersion>3.0.3.80</EBNVersion><FirmwareVersion>1.33</FirmwareVersion><APIVersion>1.33</APIVersion><USBHostControllerVersion>2.0</USBHostControllerVersion><USBConnectionRoute>USB#ROOT_HUB20#4&9bd2e8a&0#{f18a0e88-c30c-11d0-8815-00a0c906bed8} + USB#VID_8087&PID_0024#5&3026c139&0&1#{f18a0e88-c30c-11d0-8815-00a0c906bed8}(1) + VID_2266&PID_0007(7)</USBConnectionRoute></ChronosDeviceInfo>;"<?xml version=""1.0""?>\n<Clock xmlns:dt=""urn:schemas-microsoft-com:datatypes""><Description dt:dt=""string"">E-Prime Primary Realtime Clock</Description><StartTime><Timestamp dt:dt=""int"">0</Timestamp><DateUtc dt:dt=""string"">2021-04-30T09:16:02Z</DateUtc></StartTime><FrequencyChanges><FrequencyChange><Frequency dt:dt=""r8"">2435566</Frequency><Timestamp dt:dt=""r8"">18505308075</Timestamp><Current dt:dt=""r8"">0</Current><DateUtc dt:dt=""string"">2021-04-30T09:16:02Z</DateUtc></FrequencyChange></FrequencyChanges></Clock>\n";EXP2.2_290421-10004-1;60.024;1.0.0.340;1;Chronos;1325870774;Full;3.0.3.80;3.0.3.80;04-30-2021;30/04/2021 09:16;11:16:02;3.0.3.82;2;;2;1;2;TESTVV;Generalbloc;;;;pretest;Chronos;13;5;VV_290421/920.png;10;1;13;20;blocVVstim;listVVTrial;;;;Chronos;0;;0;-1;138900;200;;0;0;0;5;Chronos;0;0;139100;300;1;1246;140346;0;5;Chronos;0;0;139400;0;1;946;140346;;;;;;;;;;;;;;;;;;;
EXP2.2_290421;10004;1;<ChronosDeviceInfo><FriendlyName>MyChronos</FriendlyName><DeviceIndex>1</DeviceIndex><SerialNumber>CHR-04301-1186</SerialNumber><EBNVersion>3.0.3.80</EBNVersion><FirmwareVersion>1.33</FirmwareVersion><APIVersion>1.33</APIVersion><USBHostControllerVersion>2.0</USBHostControllerVersion><USBConnectionRoute>USB#ROOT_HUB20#4&9bd2e8a&0#{f18a0e88-c30c-11d0-8815-00a0c906bed8} + USB#VID_8087&PID_0024#5&3026c139&0&1#{f18a0e88-c30c-11d0-8815-00a0c906bed8}(1) + VID_2266&PID_0007(7)</USBConnectionRoute></ChronosDeviceInfo>;"<?xml version=""1.0""?>\n<Clock xmlns:dt=""urn:schemas-microsoft-com:datatypes""><Description dt:dt=""string"">E-Prime Primary Realtime Clock</Description><StartTime><Timestamp dt:dt=""int"">0</Timestamp><DateUtc dt:dt=""string"">2021-04-30T09:16:02Z</DateUtc></StartTime><FrequencyChanges><FrequencyChange><Frequency dt:dt=""r8"">2435566</Frequency><Timestamp dt:dt=""r8"">18505308075</Timestamp><Current dt:dt=""r8"">0</Current><DateUtc dt:dt=""string"">2021-04-30T09:16:02Z</DateUtc></FrequencyChange></FrequencyChanges></Clock>\n";EXP2.2_290421-10004-1;60.024;1.0.0.340;1;Chronos;1325870774;Full;3.0.3.80;3.0.3.80;04-30-2021;30/04/2021 09:16;11:16:02;3.0.3.82;2;;2;1;2;TESTVV;Generalbloc;;;;pretest;Chronos;14;5;VV_290421/915.png;9;1;14;15;blocVVstim;listVVTrial;;;;Chronos;0;;0;0;141866;200;;0;0;1;5;Chronos;0;0;142066;299;5;1068;143134;1;5;Chronos;1;-1;142365;0;5;769;143134;;;;;;;;;;;;;;;;;;;
EXP2.2_290421;10004;1;<ChronosDeviceInfo><FriendlyName>MyChronos</FriendlyName><DeviceIndex>1</DeviceIndex><SerialNumber>CHR-04301-1186</SerialNumber><EBNVersion>3.0.3.80</EBNVersion><FirmwareVersion>1.33</FirmwareVersion><APIVersion>1.33</APIVersion><USBHostControllerVersion>2.0</USBHostControllerVersion><USBConnectionRoute>USB#ROOT_HUB20#4&9bd2e8a&0#{f18a0e88-c30c-11d0-8815-00a0c906bed8} + USB#VID_8087&PID_0024#5&3026c139&0&1#{f18a0e88-c30c-11d0-8815-00a0c906bed8}(1) + VID_2266&PID_0007(7)</USBConnectionRoute></ChronosDeviceInfo>;"<?xml version=""1.0""?>\n<Clock xmlns:dt=""urn:schemas-microsoft-com:datatypes""><Description dt:dt=""string"">E-Prime Primary Realtime Clock</Description><StartTime><Timestamp dt:dt=""int"">0</Timestamp><DateUtc dt:dt=""string"">2021-04-30T09:16:02Z</DateUtc></StartTime><FrequencyChanges><FrequencyChange><Frequency dt:dt=""r8"">2435566</Frequency><Timestamp dt:dt=""r8"">18505308075</Timestamp><Current dt:dt=""r8"">0</Current><DateUtc dt:dt=""string"">2021-04-30T09:16:02Z</DateUtc></FrequencyChange></FrequencyChanges></Clock>\n";EXP2.2_290421-10004-1;60.024;1.0.0.340;1;Chronos;1325870774;Full;3.0.3.80;3.0.3.80;04-30-2021;30/04/2021 09:16;11:16:02;3.0.3.82;2;;2;1;2;TESTVV;Generalbloc;;;;pretest;Chronos;15;1;VV_290421/880.png;2;1;15;-20;blocVVstim;listVVTrial;;;;Chronos;0;;0;0;144648;200;;0;0;0;1;Chronos;0;0;144848;300;5;761;145609;0;1;Chronos;0;0;145148;0;5;461;145609;;;;;;;;;;;;;;;;;;;
EXP2.2_290421;10004;1;<ChronosDeviceInfo><FriendlyName>MyChronos</FriendlyName><DeviceIndex>1</DeviceIndex><SerialNumber>CHR-04301-1186</SerialNumber><EBNVersion>3.0.3.80</EBNVersion><FirmwareVersion>1.33</FirmwareVersion><APIVersion>1.33</APIVersion><USBHostControllerVersion>2.0</USBHostControllerVersion><USBConnectionRoute>USB#ROOT_HUB20#4&9bd2e8a&0#{f18a0e88-c30c-11d0-8815-00a0c906bed8} + USB#VID_8087&PID_0024#5&3026c139&0&1#{f18a0e88-c30c-11d0-8815-00a0c906bed8}(1) + VID_2266&PID_0007(7)</USBConnectionRoute></ChronosDeviceInfo>;"<?xml version=""1.0""?>\n<Clock xmlns:dt=""urn:schemas-microsoft-com:datatypes""><Description dt:dt=""string"">E-Prime Primary Realtime Clock</Description><StartTime><Timestamp dt:dt=""int"">0</Timestamp><DateUtc dt:dt=""string"">2021-04-30T09:16:02Z</DateUtc></StartTime><FrequencyChanges><FrequencyChange><Frequency dt:dt=""r8"">2435566</Frequency><Timestamp dt:dt=""r8"">18505308075</Timestamp><Current dt:dt=""r8"">0</Current><DateUtc dt:dt=""string"">2021-04-30T09:16:02Z</DateUtc></FrequencyChange></FrequencyChanges></Clock>\n";EXP2.2_290421-10004-1;60.024;1.0.0.340;1;Chronos;1325870774;Full;3.0.3.80;3.0.3.80;04-30-2021;30/04/2021 09:16;11:16:02;3.0.3.82;2;;2;1;2;TESTVV;Generalbloc;;;;pretest;Chronos;16;5;VV_290421/920.png;10;1;16;20;blocVVstim;listVVTrial;;;;Chronos;0;;0;-1;147130;200;;0;0;1;5;Chronos;0;0;147330;300;5;1335;148665;1;5;Chronos;0;0;147630;0;5;1035;148665;;;;;;;;;;;;;;;;;;;
EXP2.2_290421;10004;1;<ChronosDeviceInfo><FriendlyName>MyChronos</FriendlyName><DeviceIndex>1</DeviceIndex><SerialNumber>CHR-04301-1186</SerialNumber><EBNVersion>3.0.3.80</EBNVersion><FirmwareVersion>1.33</FirmwareVersion><APIVersion>1.33</APIVersion><USBHostControllerVersion>2.0</USBHostControllerVersion><USBConnectionRoute>USB#ROOT_HUB20#4&9bd2e8a&0#{f18a0e88-c30c-11d0-8815-00a0c906bed8} + USB#VID_8087&PID_0024#5&3026c139&0&1#{f18a0e88-c30c-11d0-8815-00a0c906bed8}(1) + VID_2266&PID_0007(7)</USBConnectionRoute></ChronosDeviceInfo>;"<?xml version=""1.0""?>\n<Clock xmlns:dt=""urn:schemas-microsoft-com:datatypes""><Description dt:dt=""string"">E-Prime Primary Realtime Clock</Description><StartTime><Timestamp dt:dt=""int"">0</Timestamp><DateUtc dt:dt=""string"">2021-04-30T09:16:02Z</DateUtc></StartTime><FrequencyChanges><FrequencyChange><Frequency dt:dt=""r8"">2435566</Frequency><Timestamp dt:dt=""r8"">18505308075</Timestamp><Current dt:dt=""r8"">0</Current><DateUtc dt:dt=""string"">2021-04-30T09:16:02Z</DateUtc></FrequencyChange></FrequencyChanges></Clock>\n";EXP2.2_290421-10004-1;60.024;1.0.0.340;1;Chronos;1325870774;Full;3.0.3.80;3.0.3.80;04-30-2021;30/04/2021 09:16;11:16:02;3.0.3.82;2;;2;1;2;TESTVV;Generalbloc;;;;pretest;Chronos;17;15;VV_290421/900.png;6;1;17;0;blocVVstim;listVVTrial;;;;Chronos;0;;0;-1;150179;200;;0;0;0;15;Chronos;0;0;150379;300;1;1516;151895;0;15;Chronos;0;0;150679;0;1;1216;151895;;;;;;;;;;;;;;;;;;;
EXP2.2_290421;10004;1;<ChronosDeviceInfo><FriendlyName>MyChronos</FriendlyName><DeviceIndex>1</DeviceIndex><SerialNumber>CHR-04301-1186</SerialNumber><EBNVersion>3.0.3.80</EBNVersion><FirmwareVersion>1.33</FirmwareVersion><APIVersion>1.33</APIVersion><USBHostControllerVersion>2.0</USBHostControllerVersion><USBConnectionRoute>USB#ROOT_HUB20#4&9bd2e8a&0#{f18a0e88-c30c-11d0-8815-00a0c906bed8} + USB#VID_8087&PID_0024#5&3026c139&0&1#{f18a0e88-c30c-11d0-8815-00a0c906bed8}(1) + VID_2266&PID_0007(7)</USBConnectionRoute></ChronosDeviceInfo>;"<?xml version=""1.0""?>\n<Clock xmlns:dt=""urn:schemas-microsoft-com:datatypes""><Description dt:dt=""string"">E-Prime Primary Realtime Clock</Description><StartTime><Timestamp dt:dt=""int"">0</Timestamp><DateUtc dt:dt=""string"">2021-04-30T09:16:02Z</DateUtc></StartTime><FrequencyChanges><FrequencyChange><Frequency dt:dt=""r8"">2435566</Frequency><Timestamp dt:dt=""r8"">18505308075</Timestamp><Current dt:dt=""r8"">0</Current><DateUtc dt:dt=""string"">2021-04-30T09:16:02Z</DateUtc></FrequencyChange></FrequencyChanges></Clock>\n";EXP2.2_290421-10004-1;60.024;1.0.0.340;1;Chronos;1325870774;Full;3.0.3.80;3.0.3.80;04-30-2021;30/04/2021 09:16;11:16:02;3.0.3.82;2;;2;1;2;TESTVV;Generalbloc;;;;pretest;Chronos;18;1;VV_290421/885.png;3;1;18;-15;blocVVstim;listVVTrial;;;;Chronos;0;;0;-1;153411;200;;0;0;0;1;Chronos;0;0;153611;300;5;759;154370;0;1;Chronos;0;0;153911;0;5;459;154370;;;;;;;;;;;;;;;;;;;
EXP2.2_290421;10004;1;<ChronosDeviceInfo><FriendlyName>MyChronos</FriendlyName><DeviceIndex>1</DeviceIndex><SerialNumber>CHR-04301-1186</SerialNumber><EBNVersion>3.0.3.80</EBNVersion><FirmwareVersion>1.33</FirmwareVersion><APIVersion>1.33</APIVersion><USBHostControllerVersion>2.0</USBHostControllerVersion><USBConnectionRoute>USB#ROOT_HUB20#4&9bd2e8a&0#{f18a0e88-c30c-11d0-8815-00a0c906bed8} + USB#VID_8087&PID_0024#5&3026c139&0&1#{f18a0e88-c30c-11d0-8815-00a0c906bed8}(1) + VID_2266&PID_0007(7)</USBConnectionRoute></ChronosDeviceInfo>;"<?xml version=""1.0""?>\n<Clock xmlns:dt=""urn:schemas-microsoft-com:datatypes""><Description dt:dt=""string"">E-Prime Primary Realtime Clock</Description><StartTime><Timestamp dt:dt=""int"">0</Timestamp><DateUtc dt:dt=""string"">2021-04-30T09:16:02Z</DateUtc></StartTime><FrequencyChanges><FrequencyChange><Frequency dt:dt=""r8"">2435566</Frequency><Timestamp dt:dt=""r8"">18505308075</Timestamp><Current dt:dt=""r8"">0</Current><DateUtc dt:dt=""string"">2021-04-30T09:16:02Z</DateUtc></FrequencyChange></FrequencyChanges></Clock>\n";EXP2.2_290421-10004-1;60.024;1.0.0.340;1;Chronos;1325870774;Full;3.0.3.80;3.0.3.80;04-30-2021;30/04/2021 09:16;11:16:02;3.0.3.82;2;;2;1;2;TESTVV;Generalbloc;;;;pretest;Chronos;19;5;VV_290421/915.png;9;1;19;15;blocVVstim;listVVTrial;;;;Chronos;0;;0;0;155894;200;;0;0;1;5;Chronos;0;0;156094;299;5;647;156741;1;5;Chronos;1;-1;156393;0;5;348;156741;;;;;;;;;;;;;;;;;;;
EXP2.2_290421;10004;1;<ChronosDeviceInfo><FriendlyName>MyChronos</FriendlyName><DeviceIndex>1</DeviceIndex><SerialNumber>CHR-04301-1186</SerialNumber><EBNVersion>3.0.3.80</EBNVersion><FirmwareVersion>1.33</FirmwareVersion><APIVersion>1.33</APIVersion><USBHostControllerVersion>2.0</USBHostControllerVersion><USBConnectionRoute>USB#ROOT_HUB20#4&9bd2e8a&0#{f18a0e88-c30c-11d0-8815-00a0c906bed8} + USB#VID_8087&PID_0024#5&3026c139&0&1#{f18a0e88-c30c-11d0-8815-00a0c906bed8}(1) + VID_2266&PID_0007(7)</USBConnectionRoute></ChronosDeviceInfo>;"<?xml version=""1.0""?>\n<Clock xmlns:dt=""urn:schemas-microsoft-com:datatypes""><Description dt:dt=""string"">E-Prime Primary Realtime Clock</Description><StartTime><Timestamp dt:dt=""int"">0</Timestamp><DateUtc dt:dt=""string"">2021-04-30T09:16:02Z</DateUtc></StartTime><FrequencyChanges><FrequencyChange><Frequency dt:dt=""r8"">2435566</Frequency><Timestamp dt:dt=""r8"">18505308075</Timestamp><Current dt:dt=""r8"">0</Current><DateUtc dt:dt=""string"">2021-04-30T09:16:02Z</DateUtc></FrequencyChange></FrequencyChanges></Clock>\n";EXP2.2_290421-10004-1;60.024;1.0.0.340;1;Chronos;1325870774;Full;3.0.3.80;3.0.3.80;04-30-2021;30/04/2021 09:16;11:16:02;3.0.3.82;2;;2;1;2;TESTVV;Generalbloc;;;;pretest;Chronos;20;1;VV_290421/890.png;4;1;20;-10;blocVVstim;listVVTrial;;;;Chronos;0;;0;-1;158259;200;;0;0;1;1;Chronos;0;0;158459;300;1;522;158981;1;1;Chronos;0;0;158759;0;1;222;158981;;;;;;;;;;;;;;;;;;;
EXP2.2_290421;10004;1;<ChronosDeviceInfo><FriendlyName>MyChronos</FriendlyName><DeviceIndex>1</DeviceIndex><SerialNumber>CHR-04301-1186</SerialNumber><EBNVersion>3.0.3.80</EBNVersion><FirmwareVersion>1.33</FirmwareVersion><APIVersion>1.33</APIVersion><USBHostControllerVersion>2.0</USBHostControllerVersion><USBConnectionRoute>USB#ROOT_HUB20#4&9bd2e8a&0#{f18a0e88-c30c-11d0-8815-00a0c906bed8} + USB#VID_8087&PID_0024#5&3026c139&0&1#{f18a0e88-c30c-11d0-8815-00a0c906bed8}(1) + VID_2266&PID_0007(7)</USBConnectionRoute></ChronosDeviceInfo>;"<?xml version=""1.0""?>\n<Clock xmlns:dt=""urn:schemas-microsoft-com:datatypes""><Description dt:dt=""string"">E-Prime Primary Realtime Clock</Description><StartTime><Timestamp dt:dt=""int"">0</Timestamp><DateUtc dt:dt=""string"">2021-04-30T09:16:02Z</DateUtc></StartTime><FrequencyChanges><FrequencyChange><Frequency dt:dt=""r8"">2435566</Frequency><Timestamp dt:dt=""r8"">18505308075</Timestamp><Current dt:dt=""r8"">0</Current><DateUtc dt:dt=""string"">2021-04-30T09:16:02Z</DateUtc></FrequencyChange></FrequencyChanges></Clock>\n";EXP2.2_290421-10004-1;60.024;1.0.0.340;1;Chronos;1325870774;Full;3.0.3.80;3.0.3.80;04-30-2021;30/04/2021 09:16;11:16:02;3.0.3.82;2;;2;1;2;TESTVV;Generalbloc;;;;pretest;Chronos;21;5;VV_290421/915.png;9;1;21;15;blocVVstim;listVVTrial;;;;Chronos;0;;1;-1;160508;200;;0;0;0;5;Chronos;1;0;160708;300;1;637;161345;0;5;Chronos;0;0;161008;0;1;337;161345;;;;;;;;;;;;;;;;;;;
EXP2.2_290421;10004;1;<ChronosDeviceInfo><FriendlyName>MyChronos</FriendlyName><DeviceIndex>1</DeviceIndex><SerialNumber>CHR-04301-1186</SerialNumber><EBNVersion>3.0.3.80</EBNVersion><FirmwareVersion>1.33</FirmwareVersion><APIVersion>1.33</APIVersion><USBHostControllerVersion>2.0</USBHostControllerVersion><USBConnectionRoute>USB#ROOT_HUB20#4&9bd2e8a&0#{f18a0e88-c30c-11d0-8815-00a0c906bed8} + USB#VID_8087&PID_0024#5&3026c139&0&1#{f18a0e88-c30c-11d0-8815-00a0c906bed8}(1) + VID_2266&PID_0007(7)</USBConnectionRoute></ChronosDeviceInfo>;"<?xml version=""1.0""?>\n<Clock xmlns:dt=""urn:schemas-microsoft-com:datatypes""><Description dt:dt=""string"">E-Prime Primary Realtime Clock</Description><StartTime><Timestamp dt:dt=""int"">0</Timestamp><DateUtc dt:dt=""string"">2021-04-30T09:16:02Z</DateUtc></StartTime><FrequencyChanges><FrequencyChange><Frequency dt:dt=""r8"">2435566</Frequency><Timestamp dt:dt=""r8"">18505308075</Timestamp><Current dt:dt=""r8"">0</Current><DateUtc dt:dt=""string"">2021-04-30T09:16:02Z</DateUtc></FrequencyChange></FrequencyChanges></Clock>\n";EXP2.2_290421-10004-1;60.024;1.0.0.340;1;Chronos;1325870774;Full;3.0.3.80;3.0.3.80;04-30-2021;30/04/2021 09:16;11:16:02;3.0.3.82;2;;2;1;2;TESTVV;Generalbloc;;;;pretest;Chronos;22;1;VV_290421/895.png;5;1;22;-5;blocVVstim;listVVTrial;;;;Chronos;0;;0;-1;162874;200;;0;0;1;1;Chronos;0;0;163074;300;1;560;163634;1;1;Chronos;0;0;163374;0;1;260;163634;;;;;;;;;;;;;;;;;;;
EXP2.2_290421;10004;1;<ChronosDeviceInfo><FriendlyName>MyChronos</FriendlyName><DeviceIndex>1</DeviceIndex><SerialNumber>CHR-04301-1186</SerialNumber><EBNVersion>3.0.3.80</EBNVersion><FirmwareVersion>1.33</FirmwareVersion><APIVersion>1.33</APIVersion><USBHostControllerVersion>2.0</USBHostControllerVersion><USBConnectionRoute>USB#ROOT_HUB20#4&9bd2e8a&0#{f18a0e88-c30c-11d0-8815-00a0c906bed8} + USB#VID_8087&PID_0024#5&3026c139&0&1#{f18a0e88-c30c-11d0-8815-00a0c906bed8}(1) + VID_2266&PID_0007(7)</USBConnectionRoute></ChronosDeviceInfo>;"<?xml version=""1.0""?>\n<Clock xmlns:dt=""urn:schemas-microsoft-com:datatypes""><Description dt:dt=""string"">E-Prime Primary Realtime Clock</Description><StartTime><Timestamp dt:dt=""int"">0</Timestamp><DateUtc dt:dt=""string"">2021-04-30T09:16:02Z</DateUtc></StartTime><FrequencyChanges><FrequencyChange><Frequency dt:dt=""r8"">2435566</Frequency><Timestamp dt:dt=""r8"">18505308075</Timestamp><Current dt:dt=""r8"">0</Current><DateUtc dt:dt=""string"">2021-04-30T09:16:02Z</DateUtc></FrequencyChange></FrequencyChanges></Clock>\n";EXP2.2_290421-10004-1;60.024;1.0.0.340;1;Chronos;1325870774;Full;3.0.3.80;3.0.3.80;04-30-2021;30/04/2021 09:16;11:16:02;3.0.3.82;2;;2;1;2;TESTVV;Generalbloc;;;;pretest;Chronos;23;1;VV_290421/890.png;4;1;23;-10;blocVVstim;listVVTrial;;;;Chronos;0;;0;0;165157;200;;0;0;1;1;Chronos;0;0;165357;300;1;718;166075;1;1;Chronos;0;0;165657;0;1;418;166075;;;;;;;;;;;;;;;;;;;
EXP2.2_290421;10004;1;<ChronosDeviceInfo><FriendlyName>MyChronos</FriendlyName><DeviceIndex>1</DeviceIndex><SerialNumber>CHR-04301-1186</SerialNumber><EBNVersion>3.0.3.80</EBNVersion><FirmwareVersion>1.33</FirmwareVersion><APIVersion>1.33</APIVersion><USBHostControllerVersion>2.0</USBHostControllerVersion><USBConnectionRoute>USB#ROOT_HUB20#4&9bd2e8a&0#{f18a0e88-c30c-11d0-8815-00a0c906bed8} + USB#VID_8087&PID_0024#5&3026c139&0&1#{f18a0e88-c30c-11d0-8815-00a0c906bed8}(1) + VID_2266&PID_0007(7)</USBConnectionRoute></ChronosDeviceInfo>;"<?xml version=""1.0""?>\n<Clock xmlns:dt=""urn:schemas-microsoft-com:datatypes""><Description dt:dt=""string"">E-Prime Primary Realtime Clock</Description><StartTime><Timestamp dt:dt=""int"">0</Timestamp><DateUtc dt:dt=""string"">2021-04-30T09:16:02Z</DateUtc></StartTime><FrequencyChanges><FrequencyChange><Frequency dt:dt=""r8"">2435566</Frequency><Timestamp dt:dt=""r8"">18505308075</Timestamp><Current dt:dt=""r8"">0</Current><DateUtc dt:dt=""string"">2021-04-30T09:16:02Z</DateUtc></FrequencyChange></FrequencyChanges></Clock>\n";EXP2.2_290421-10004-1;60.024;1.0.0.340;1;Chronos;1325870774;Full;3.0.3.80;3.0.3.80;04-30-2021;30/04/2021 09:16;11:16:02;3.0.3.82;2;;2;1;2;TESTVV;Generalbloc;;;;pretest;Chronos;24;1;VV_290421/890.png;4;1;24;-10;blocVVstim;listVVTrial;;;;Chronos;0;;0;-1;167589;200;;0;0;0;1;Chronos;0;0;167789;300;5;668;168457;0;1;Chronos;0;0;168089;0;5;368;168457;;;;;;;;;;;;;;;;;;;
EXP2.2_290421;10004;1;<ChronosDeviceInfo><FriendlyName>MyChronos</FriendlyName><DeviceIndex>1</DeviceIndex><SerialNumber>CHR-04301-1186</SerialNumber><EBNVersion>3.0.3.80</EBNVersion><FirmwareVersion>1.33</FirmwareVersion><APIVersion>1.33</APIVersion><USBHostControllerVersion>2.0</USBHostControllerVersion><USBConnectionRoute>USB#ROOT_HUB20#4&9bd2e8a&0#{f18a0e88-c30c-11d0-8815-00a0c906bed8} + USB#VID_8087&PID_0024#5&3026c139&0&1#{f18a0e88-c30c-11d0-8815-00a0c906bed8}(1) + VID_2266&PID_0007(7)</USBConnectionRoute></ChronosDeviceInfo>;"<?xml version=""1.0""?>\n<Clock xmlns:dt=""urn:schemas-microsoft-com:datatypes""><Description dt:dt=""string"">E-Prime Primary Realtime Clock</Description><StartTime><Timestamp dt:dt=""int"">0</Timestamp><DateUtc dt:dt=""string"">2021-04-30T09:16:02Z</DateUtc></StartTime><FrequencyChanges><FrequencyChange><Frequency dt:dt=""r8"">2435566</Frequency><Timestamp dt:dt=""r8"">18505308075</Timestamp><Current dt:dt=""r8"">0</Current><DateUtc dt:dt=""string"">2021-04-30T09:16:02Z</DateUtc></FrequencyChange></FrequencyChanges></Clock>\n";EXP2.2_290421-10004-1;60.024;1.0.0.340;1;Chronos;1325870774;Full;3.0.3.80;3.0.3.80;04-30-2021;30/04/2021 09:16;11:16:02;3.0.3.82;2;;2;1;2;TESTVV;Generalbloc;;;;pretest;Chronos;25;15;VV_290421/900.png;6;1;25;0;blocVVstim;listVVTrial;;;;Chronos;0;;0;0;169972;199;;0;0;0;15;Chronos;1;-1;170171;300;5;856;171027;0;15;Chronos;0;0;170471;0;5;556;171027;;;;;;;;;;;;;;;;;;;
EXP2.2_290421;10004;1;<ChronosDeviceInfo><FriendlyName>MyChronos</FriendlyName><DeviceIndex>1</DeviceIndex><SerialNumber>CHR-04301-1186</SerialNumber><EBNVersion>3.0.3.80</EBNVersion><FirmwareVersion>1.33</FirmwareVersion><APIVersion>1.33</APIVersion><USBHostControllerVersion>2.0</USBHostControllerVersion><USBConnectionRoute>USB#ROOT_HUB20#4&9bd2e8a&0#{f18a0e88-c30c-11d0-8815-00a0c906bed8} + USB#VID_8087&PID_0024#5&3026c139&0&1#{f18a0e88-c30c-11d0-8815-00a0c906bed8}(1) + VID_2266&PID_0007(7)</USBConnectionRoute></ChronosDeviceInfo>;"<?xml version=""1.0""?>\n<Clock xmlns:dt=""urn:schemas-microsoft-com:datatypes""><Description dt:dt=""string"">E-Prime Primary Realtime Clock</Description><StartTime><Timestamp dt:dt=""int"">0</Timestamp><DateUtc dt:dt=""string"">2021-04-30T09:16:02Z</DateUtc></StartTime><FrequencyChanges><FrequencyChange><Frequency dt:dt=""r8"">2435566</Frequency><Timestamp dt:dt=""r8"">18505308075</Timestamp><Current dt:dt=""r8"">0</Current><DateUtc dt:dt=""string"">2021-04-30T09:16:02Z</DateUtc></FrequencyChange></FrequencyChanges></Clock>\n";EXP2.2_290421-10004-1;60.024;1.0.0.340;1;Chronos;1325870774;Full;3.0.3.80;3.0.3.80;04-30-2021;30/04/2021 09:16;11:16:02;3.0.3.82;2;;2;1;2;TESTVV;Generalbloc;;;;pretest;Chronos;26;15;VV_290421/900.png;6;1;26;0;blocVVstim;listVVTrial;;;;Chronos;0;;0;0;172554;200;;0;0;0;15;Chronos;0;0;172754;300;1;833;173587;0;15;Chronos;0;0;173054;0;1;533;173587;;;;;;;;;;;;;;;;;;;
EXP2.2_290421;10004;1;<ChronosDeviceInfo><FriendlyName>MyChronos</FriendlyName><DeviceIndex>1</DeviceIndex><SerialNumber>CHR-04301-1186</SerialNumber><EBNVersion>3.0.3.80</EBNVersion><FirmwareVersion>1.33</FirmwareVersion><APIVersion>1.33</APIVersion><USBHostControllerVersion>2.0</USBHostControllerVersion><USBConnectionRoute>USB#ROOT_HUB20#4&9bd2e8a&0#{f18a0e88-c30c-11d0-8815-00a0c906bed8} + USB#VID_8087&PID_0024#5&3026c139&0&1#{f18a0e88-c30c-11d0-8815-00a0c906bed8}(1) + VID_2266&PID_0007(7)</USBConnectionRoute></ChronosDeviceInfo>;"<?xml version=""1.0""?>\n<Clock xmlns:dt=""urn:schemas-microsoft-com:datatypes""><Description dt:dt=""string"">E-Prime Primary Realtime Clock</Description><StartTime><Timestamp dt:dt=""int"">0</Timestamp><DateUtc dt:dt=""string"">2021-04-30T09:16:02Z</DateUtc></StartTime><FrequencyChanges><FrequencyChange><Frequency dt:dt=""r8"">2435566</Frequency><Timestamp dt:dt=""r8"">18505308075</Timestamp><Current dt:dt=""r8"">0</Current><DateUtc dt:dt=""string"">2021-04-30T09:16:02Z</DateUtc></FrequencyChange></FrequencyChanges></Clock>\n";EXP2.2_290421-10004-1;60.024;1.0.0.340;1;Chronos;1325870774;Full;3.0.3.80;3.0.3.80;04-30-2021;30/04/2021 09:16;11:16:02;3.0.3.82;2;;2;1;2;TESTVV;Generalbloc;;;;pretest;Chronos;27;5;VV_290421/915.png;9;1;27;15;blocVVstim;listVVTrial;;;;Chronos;0;;0;0;175103;200;;0;0;0;5;Chronos;0;0;175303;300;1;1014;176317;0;5;Chronos;0;0;175603;0;1;714;176317;;;;;;;;;;;;;;;;;;;
EXP2.2_290421;10004;1;<ChronosDeviceInfo><FriendlyName>MyChronos</FriendlyName><DeviceIndex>1</DeviceIndex><SerialNumber>CHR-04301-1186</SerialNumber><EBNVersion>3.0.3.80</EBNVersion><FirmwareVersion>1.33</FirmwareVersion><APIVersion>1.33</APIVersion><USBHostControllerVersion>2.0</USBHostControllerVersion><USBConnectionRoute>USB#ROOT_HUB20#4&9bd2e8a&0#{f18a0e88-c30c-11d0-8815-00a0c906bed8} + USB#VID_8087&PID_0024#5&3026c139&0&1#{f18a0e88-c30c-11d0-8815-00a0c906bed8}(1) + VID_2266&PID_0007(7)</USBConnectionRoute></ChronosDeviceInfo>;"<?xml version=""1.0""?>\n<Clock xmlns:dt=""urn:schemas-microsoft-com:datatypes""><Description dt:dt=""string"">E-Prime Primary Realtime Clock</Description><StartTime><Timestamp dt:dt=""int"">0</Timestamp><DateUtc dt:dt=""string"">2021-04-30T09:16:02Z</DateUtc></StartTime><FrequencyChanges><FrequencyChange><Frequency dt:dt=""r8"">2435566</Frequency><Timestamp dt:dt=""r8"">18505308075</Timestamp><Current dt:dt=""r8"">0</Current><DateUtc dt:dt=""string"">2021-04-30T09:16:02Z</DateUtc></FrequencyChange></FrequencyChanges></Clock>\n";EXP2.2_290421-10004-1;60.024;1.0.0.340;1;Chronos;1325870774;Full;3.0.3.80;3.0.3.80;04-30-2021;30/04/2021 09:16;11:16:02;3.0.3.82;2;;2;1;2;TESTVV;Generalbloc;;;;pretest;Chronos;28;1;VV_290421/880.png;2;1;28;-20;blocVVstim;listVVTrial;;;;Chronos;0;;0;-1;177835;200;;0;0;1;1;Chronos;0;0;178035;300;1;724;178759;1;1;Chronos;0;0;178335;0;1;424;178759;;;;;;;;;;;;;;;;;;;
EXP2.2_290421;10004;1;<ChronosDeviceInfo><FriendlyName>MyChronos</FriendlyName><DeviceIndex>1</DeviceIndex><SerialNumber>CHR-04301-1186</SerialNumber><EBNVersion>3.0.3.80</EBNVersion><FirmwareVersion>1.33</FirmwareVersion><APIVersion>1.33</APIVersion><USBHostControllerVersion>2.0</USBHostControllerVersion><USBConnectionRoute>USB#ROOT_HUB20#4&9bd2e8a&0#{f18a0e88-c30c-11d0-8815-00a0c906bed8} + USB#VID_8087&PID_0024#5&3026c139&0&1#{f18a0e88-c30c-11d0-8815-00a0c906bed8}(1) + VID_2266&PID_0007(7)</USBConnectionRoute></ChronosDeviceInfo>;"<?xml version=""1.0""?>\n<Clock xmlns:dt=""urn:schemas-microsoft-com:datatypes""><Description dt:dt=""string"">E-Prime Primary Realtime Clock</Description><StartTime><Timestamp dt:dt=""int"">0</Timestamp><DateUtc dt:dt=""string"">2021-04-30T09:16:02Z</DateUtc></StartTime><FrequencyChanges><FrequencyChange><Frequency dt:dt=""r8"">2435566</Frequency><Timestamp dt:dt=""r8"">18505308075</Timestamp><Current dt:dt=""r8"">0</Current><DateUtc dt:dt=""string"">2021-04-30T09:16:02Z</DateUtc></FrequencyChange></FrequencyChanges></Clock>\n";EXP2.2_290421-10004-1;60.024;1.0.0.340;1;Chronos;1325870774;Full;3.0.3.80;3.0.3.80;04-30-2021;30/04/2021 09:16;11:16:02;3.0.3.82;2;;2;1;2;TESTVV;Generalbloc;;;;pretest;Chronos;29;1;VV_290421/885.png;3;1;29;-15;blocVVstim;listVVTrial;;;;Chronos;0;;0;-1;180284;200;;0;0;0;1;Chronos;0;0;180484;300;5;934;181418;0;1;Chronos;0;0;180784;0;5;634;181418;;;;;;;;;;;;;;;;;;;
EXP2.2_290421;10004;1;<ChronosDeviceInfo><FriendlyName>MyChronos</FriendlyName><DeviceIndex>1</DeviceIndex><SerialNumber>CHR-04301-1186</SerialNumber><EBNVersion>3.0.3.80</EBNVersion><FirmwareVersion>1.33</FirmwareVersion><APIVersion>1.33</APIVersion><USBHostControllerVersion>2.0</USBHostControllerVersion><USBConnectionRoute>USB#ROOT_HUB20#4&9bd2e8a&0#{f18a0e88-c30c-11d0-8815-00a0c906bed8} + USB#VID_8087&PID_0024#5&3026c139&0&1#{f18a0e88-c30c-11d0-8815-00a0c906bed8}(1) + VID_2266&PID_0007(7)</USBConnectionRoute></ChronosDeviceInfo>;"<?xml version=""1.0""?>\n<Clock xmlns:dt=""urn:schemas-microsoft-com:datatypes""><Description dt:dt=""string"">E-Prime Primary Realtime Clock</Description><StartTime><Timestamp dt:dt=""int"">0</Timestamp><DateUtc dt:dt=""string"">2021-04-30T09:16:02Z</DateUtc></StartTime><FrequencyChanges><FrequencyChange><Frequency dt:dt=""r8"">2435566</Frequency><Timestamp dt:dt=""r8"">18505308075</Timestamp><Current dt:dt=""r8"">0</Current><DateUtc dt:dt=""string"">2021-04-30T09:16:02Z</DateUtc></FrequencyChange></FrequencyChanges></Clock>\n";EXP2.2_290421-10004-1;60.024;1.0.0.340;1;Chronos;1325870774;Full;3.0.3.80;3.0.3.80;04-30-2021;30/04/2021 09:16;11:16:02;3.0.3.82;2;;2;1;2;TESTVV;Generalbloc;;;;pretest;Chronos;30;1;VV_290421/895.png;5;1;30;-5;blocVVstim;listVVTrial;;;;Chronos;0;;0;-1;182933;200;;0;0;0;1;Chronos;0;0;183133;300;5;757;183890;0;1;Chronos;0;0;183433;0;5;457;183890;;;;;;;;;;;;;;;;;;;
EXP2.2_290421;10004;1;<ChronosDeviceInfo><FriendlyName>MyChronos</FriendlyName><DeviceIndex>1</DeviceIndex><SerialNumber>CHR-04301-1186</SerialNumber><EBNVersion>3.0.3.80</EBNVersion><FirmwareVersion>1.33</FirmwareVersion><APIVersion>1.33</APIVersion><USBHostControllerVersion>2.0</USBHostControllerVersion><USBConnectionRoute>USB#ROOT_HUB20#4&9bd2e8a&0#{f18a0e88-c30c-11d0-8815-00a0c906bed8} + USB#VID_8087&PID_0024#5&3026c139&0&1#{f18a0e88-c30c-11d0-8815-00a0c906bed8}(1) + VID_2266&PID_0007(7)</USBConnectionRoute></ChronosDeviceInfo>;"<?xml version=""1.0""?>\n<Clock xmlns:dt=""urn:schemas-microsoft-com:datatypes""><Description dt:dt=""string"">E-Prime Primary Realtime Clock</Description><StartTime><Timestamp dt:dt=""int"">0</Timestamp><DateUtc dt:dt=""string"">2021-04-30T09:16:02Z</DateUtc></StartTime><FrequencyChanges><FrequencyChange><Frequency dt:dt=""r8"">2435566</Frequency><Timestamp dt:dt=""r8"">18505308075</Timestamp><Current dt:dt=""r8"">0</Current><DateUtc dt:dt=""string"">2021-04-30T09:16:02Z</DateUtc></FrequencyChange></FrequencyChanges></Clock>\n";EXP2.2_290421-10004-1;60.024;1.0.0.340;1;Chronos;1325870774;Full;3.0.3.80;3.0.3.80;04-30-2021;30/04/2021 09:16;11:16:02;3.0.3.82;2;;2;1;2;TESTVV;Generalbloc;;;;pretest;Chronos;31;5;VV_290421/920.png;10;1;31;20;blocVVstim;listVVTrial;;;;Chronos;0;;0;0;185416;200;;0;0;0;5;Chronos;0;0;185616;299;1;1000;186616;0;5;Chronos;1;-1;185915;0;1;701;186616;;;;;;;;;;;;;;;;;;;
EXP2.2_290421;10004;1;<ChronosDeviceInfo><FriendlyName>MyChronos</FriendlyName><DeviceIndex>1</DeviceIndex><SerialNumber>CHR-04301-1186</SerialNumber><EBNVersion>3.0.3.80</EBNVersion><FirmwareVersion>1.33</FirmwareVersion><APIVersion>1.33</APIVersion><USBHostControllerVersion>2.0</USBHostControllerVersion><USBConnectionRoute>USB#ROOT_HUB20#4&9bd2e8a&0#{f18a0e88-c30c-11d0-8815-00a0c906bed8} + USB#VID_8087&PID_0024#5&3026c139&0&1#{f18a0e88-c30c-11d0-8815-00a0c906bed8}(1) + VID_2266&PID_0007(7)</USBConnectionRoute></ChronosDeviceInfo>;"<?xml version=""1.0""?>\n<Clock xmlns:dt=""urn:schemas-microsoft-com:datatypes""><Description dt:dt=""string"">E-Prime Primary Realtime Clock</Description><StartTime><Timestamp dt:dt=""int"">0</Timestamp><DateUtc dt:dt=""string"">2021-04-30T09:16:02Z</DateUtc></StartTime><FrequencyChanges><FrequencyChange><Frequency dt:dt=""r8"">2435566</Frequency><Timestamp dt:dt=""r8"">18505308075</Timestamp><Current dt:dt=""r8"">0</Current><DateUtc dt:dt=""string"">2021-04-30T09:16:02Z</DateUtc></FrequencyChange></FrequencyChanges></Clock>\n";EXP2.2_290421-10004-1;60.024;1.0.0.340;1;Chronos;1325870774;Full;3.0.3.80;3.0.3.80;04-30-2021;30/04/2021 09:16;11:16:02;3.0.3.82;2;;2;1;2;TESTVV;Generalbloc;;;;pretest;Chronos;32;5;VV_290421/915.png;9;1;32;15;blocVVstim;listVVTrial;;;;Chronos;0;;0;-1;188131;200;;0;0;0;5;Chronos;0;0;188331;300;1;957;189288;0;5;Chronos;0;0;188631;0;1;657;189288;;;;;;;;;;;;;;;;;;;
EXP2.2_290421;10004;1;<ChronosDeviceInfo><FriendlyName>MyChronos</FriendlyName><DeviceIndex>1</DeviceIndex><SerialNumber>CHR-04301-1186</SerialNumber><EBNVersion>3.0.3.80</EBNVersion><FirmwareVersion>1.33</FirmwareVersion><APIVersion>1.33</APIVersion><USBHostControllerVersion>2.0</USBHostControllerVersion><USBConnectionRoute>USB#ROOT_HUB20#4&9bd2e8a&0#{f18a0e88-c30c-11d0-8815-00a0c906bed8} + USB#VID_8087&PID_0024#5&3026c139&0&1#{f18a0e88-c30c-11d0-8815-00a0c906bed8}(1) + VID_2266&PID_0007(7)</USBConnectionRoute></ChronosDeviceInfo>;"<?xml version=""1.0""?>\n<Clock xmlns:dt=""urn:schemas-microsoft-com:datatypes""><Description dt:dt=""string"">E-Prime Primary Realtime Clock</Description><StartTime><Timestamp dt:dt=""int"">0</Timestamp><DateUtc dt:dt=""string"">2021-04-30T09:16:02Z</DateUtc></StartTime><FrequencyChanges><FrequencyChange><Frequency dt:dt=""r8"">2435566</Frequency><Timestamp dt:dt=""r8"">18505308075</Timestamp><Current dt:dt=""r8"">0</Current><DateUtc dt:dt=""string"">2021-04-30T09:16:02Z</DateUtc></FrequencyChange></FrequencyChanges></Clock>\n";EXP2.2_290421-10004-1;60.024;1.0.0.340;1;Chronos;1325870774;Full;3.0.3.80;3.0.3.80;04-30-2021;30/04/2021 09:16;11:16:02;3.0.3.82;2;;2;1;2;TESTVV;Generalbloc;;;;pretest;Chronos;33;5;VV_290421/905.png;7;1;33;5;blocVVstim;listVVTrial;;;;Chronos;0;;0;0;190814;199;;0;0;1;5;Chronos;1;-1;191013;300;5;1015;192028;1;5;Chronos;1;0;191313;0;5;715;192028;;;;;;;;;;;;;;;;;;;
EXP2.2_290421;10004;1;<ChronosDeviceInfo><FriendlyName>MyChronos</FriendlyName><DeviceIndex>1</DeviceIndex><SerialNumber>CHR-04301-1186</SerialNumber><EBNVersion>3.0.3.80</EBNVersion><FirmwareVersion>1.33</FirmwareVersion><APIVersion>1.33</APIVersion><USBHostControllerVersion>2.0</USBHostControllerVersion><USBConnectionRoute>USB#ROOT_HUB20#4&9bd2e8a&0#{f18a0e88-c30c-11d0-8815-00a0c906bed8} + USB#VID_8087&PID_0024#5&3026c139&0&1#{f18a0e88-c30c-11d0-8815-00a0c906bed8}(1) + VID_2266&PID_0007(7)</USBConnectionRoute></ChronosDeviceInfo>;"<?xml version=""1.0""?>\n<Clock xmlns:dt=""urn:schemas-microsoft-com:datatypes""><Description dt:dt=""string"">E-Prime Primary Realtime Clock</Description><StartTime><Timestamp dt:dt=""int"">0</Timestamp><DateUtc dt:dt=""string"">2021-04-30T09:16:02Z</DateUtc></StartTime><FrequencyChanges><FrequencyChange><Frequency dt:dt=""r8"">2435566</Frequency><Timestamp dt:dt=""r8"">18505308075</Timestamp><Current dt:dt=""r8"">0</Current><DateUtc dt:dt=""string"">2021-04-30T09:16:02Z</DateUtc></FrequencyChange></FrequencyChanges></Clock>\n";EXP2.2_290421-10004-1;60.024;1.0.0.340;1;Chronos;1325870774;Full;3.0.3.80;3.0.3.80;04-30-2021;30/04/2021 09:16;11:16:02;3.0.3.82;2;;2;1;2;TESTVV;Generalbloc;;;;pretest;Chronos;34;5;VV_290421/910.png;8;1;34;10;blocVVstim;listVVTrial;;;;Chronos;0;;0;0;193546;200;;0;0;1;5;Chronos;0;0;193746;300;5;818;194564;1;5;Chronos;0;0;194046;0;5;518;194564;;;;;;;;;;;;;;;;;;;
EXP2.2_290421;10004;1;<ChronosDeviceInfo><FriendlyName>MyChronos</FriendlyName><DeviceIndex>1</DeviceIndex><SerialNumber>CHR-04301-1186</SerialNumber><EBNVersion>3.0.3.80</EBNVersion><FirmwareVersion>1.33</FirmwareVersion><APIVersion>1.33</APIVersion><USBHostControllerVersion>2.0</USBHostControllerVersion><USBConnectionRoute>USB#ROOT_HUB20#4&9bd2e8a&0#{f18a0e88-c30c-11d0-8815-00a0c906bed8} + USB#VID_8087&PID_0024#5&3026c139&0&1#{f18a0e88-c30c-11d0-8815-00a0c906bed8}(1) + VID_2266&PID_0007(7)</USBConnectionRoute></ChronosDeviceInfo>;"<?xml version=""1.0""?>\n<Clock xmlns:dt=""urn:schemas-microsoft-com:datatypes""><Description dt:dt=""string"">E-Prime Primary Realtime Clock</Description><StartTime><Timestamp dt:dt=""int"">0</Timestamp><DateUtc dt:dt=""string"">2021-04-30T09:16:02Z</DateUtc></StartTime><FrequencyChanges><FrequencyChange><Frequency dt:dt=""r8"">2435566</Frequency><Timestamp dt:dt=""r8"">18505308075</Timestamp><Current dt:dt=""r8"">0</Current><DateUtc dt:dt=""string"">2021-04-30T09:16:02Z</DateUtc></FrequencyChange></FrequencyChanges></Clock>\n";EXP2.2_290421-10004-1;60.024;1.0.0.340;1;Chronos;1325870774;Full;3.0.3.80;3.0.3.80;04-30-2021;30/04/2021 09:16;11:16:02;3.0.3.82;2;;2;1;2;TESTVV;Generalbloc;;;;pretest;Chronos;35;1;VV_290421/885.png;3;1;35;-15;blocVVstim;listVVTrial;;;;Chronos;0;;0;-1;196078;200;;0;0;0;1;Chronos;0;0;196278;300;5;1132;197410;0;1;Chronos;0;0;196578;0;5;832;197410;;;;;;;;;;;;;;;;;;;
EXP2.2_290421;10004;1;<ChronosDeviceInfo><FriendlyName>MyChronos</FriendlyName><DeviceIndex>1</DeviceIndex><SerialNumber>CHR-04301-1186</SerialNumber><EBNVersion>3.0.3.80</EBNVersion><FirmwareVersion>1.33</FirmwareVersion><APIVersion>1.33</APIVersion><USBHostControllerVersion>2.0</USBHostControllerVersion><USBConnectionRoute>USB#ROOT_HUB20#4&9bd2e8a&0#{f18a0e88-c30c-11d0-8815-00a0c906bed8} + USB#VID_8087&PID_0024#5&3026c139&0&1#{f18a0e88-c30c-11d0-8815-00a0c906bed8}(1) + VID_2266&PID_0007(7)</USBConnectionRoute></ChronosDeviceInfo>;"<?xml version=""1.0""?>\n<Clock xmlns:dt=""urn:schemas-microsoft-com:datatypes""><Description dt:dt=""string"">E-Prime Primary Realtime Clock</Description><StartTime><Timestamp dt:dt=""int"">0</Timestamp><DateUtc dt:dt=""string"">2021-04-30T09:16:02Z</DateUtc></StartTime><FrequencyChanges><FrequencyChange><Frequency dt:dt=""r8"">2435566</Frequency><Timestamp dt:dt=""r8"">18505308075</Timestamp><Current dt:dt=""r8"">0</Current><DateUtc dt:dt=""string"">2021-04-30T09:16:02Z</DateUtc></FrequencyChange></FrequencyChanges></Clock>\n";EXP2.2_290421-10004-1;60.024;1.0.0.340;1;Chronos;1325870774;Full;3.0.3.80;3.0.3.80;04-30-2021;30/04/2021 09:16;11:16:02;3.0.3.82;2;;2;1;2;TESTVV;Generalbloc;;;;pretest;Chronos;36;1;VV_290421/875.png;1;1;36;-25;blocVVstim;listVVTrial;;;;Chronos;0;;0;-1;198927;200;;0;0;0;1;Chronos;0;0;199127;300;5;649;199776;0;1;Chronos;0;0;199427;0;5;349;199776;;;;;;;;;;;;;;;;;;;
EXP2.2_290421;10004;1;<ChronosDeviceInfo><FriendlyName>MyChronos</FriendlyName><DeviceIndex>1</DeviceIndex><SerialNumber>CHR-04301-1186</SerialNumber><EBNVersion>3.0.3.80</EBNVersion><FirmwareVersion>1.33</FirmwareVersion><APIVersion>1.33</APIVersion><USBHostControllerVersion>2.0</USBHostControllerVersion><USBConnectionRoute>USB#ROOT_HUB20#4&9bd2e8a&0#{f18a0e88-c30c-11d0-8815-00a0c906bed8} + USB#VID_8087&PID_0024#5&3026c139&0&1#{f18a0e88-c30c-11d0-8815-00a0c906bed8}(1) + VID_2266&PID_0007(7)</USBConnectionRoute></ChronosDeviceInfo>;"<?xml version=""1.0""?>\n<Clock xmlns:dt=""urn:schemas-microsoft-com:datatypes""><Description dt:dt=""string"">E-Prime Primary Realtime Clock</Description><StartTime><Timestamp dt:dt=""int"">0</Timestamp><DateUtc dt:dt=""string"">2021-04-30T09:16:02Z</DateUtc></StartTime><FrequencyChanges><FrequencyChange><Frequency dt:dt=""r8"">2435566</Frequency><Timestamp dt:dt=""r8"">18505308075</Timestamp><Current dt:dt=""r8"">0</Current><DateUtc dt:dt=""string"">2021-04-30T09:16:02Z</DateUtc></FrequencyChange></FrequencyChanges></Clock>\n";EXP2.2_290421-10004-1;60.024;1.0.0.340;1;Chronos;1325870774;Full;3.0.3.80;3.0.3.80;04-30-2021;30/04/2021 09:16;11:16:02;3.0.3.82;2;;2;1;2;TESTVV;Generalbloc;;;;pretest;Chronos;37;1;VV_290421/885.png;3;1;37;-15;blocVVstim;listVVTrial;;;;Chronos;0;;0;0;201293;200;;0;0;1;1;Chronos;0;0;201493;300;1;1298;202791;1;1;Chronos;0;0;201793;0;1;998;202791;;;;;;;;;;;;;;;;;;;
EXP2.2_290421;10004;1;<ChronosDeviceInfo><FriendlyName>MyChronos</FriendlyName><DeviceIndex>1</DeviceIndex><SerialNumber>CHR-04301-1186</SerialNumber><EBNVersion>3.0.3.80</EBNVersion><FirmwareVersion>1.33</FirmwareVersion><APIVersion>1.33</APIVersion><USBHostControllerVersion>2.0</USBHostControllerVersion><USBConnectionRoute>USB#ROOT_HUB20#4&9bd2e8a&0#{f18a0e88-c30c-11d0-8815-00a0c906bed8} + USB#VID_8087&PID_0024#5&3026c139&0&1#{f18a0e88-c30c-11d0-8815-00a0c906bed8}(1) + VID_2266&PID_0007(7)</USBConnectionRoute></ChronosDeviceInfo>;"<?xml version=""1.0""?>\n<Clock xmlns:dt=""urn:schemas-microsoft-com:datatypes""><Description dt:dt=""string"">E-Prime Primary Realtime Clock</Description><StartTime><Timestamp dt:dt=""int"">0</Timestamp><DateUtc dt:dt=""string"">2021-04-30T09:16:02Z</DateUtc></StartTime><FrequencyChanges><FrequencyChange><Frequency dt:dt=""r8"">2435566</Frequency><Timestamp dt:dt=""r8"">18505308075</Timestamp><Current dt:dt=""r8"">0</Current><DateUtc dt:dt=""string"">2021-04-30T09:16:02Z</DateUtc></FrequencyChange></FrequencyChanges></Clock>\n";EXP2.2_290421-10004-1;60.024;1.0.0.340;1;Chronos;1325870774;Full;3.0.3.80;3.0.3.80;04-30-2021;30/04/2021 09:16;11:16:02;3.0.3.82;2;;2;1;2;TESTVV;Generalbloc;;;;pretest;Chronos;38;1;VV_290421/890.png;4;1;38;-10;blocVVstim;listVVTrial;;;;Chronos;0;;1;-1;204308;200;;0;0;0;1;Chronos;0;0;204508;300;5;552;205060;0;1;Chronos;0;0;204808;0;5;252;205060;;;;;;;;;;;;;;;;;;;
EXP2.2_290421;10004;1;<ChronosDeviceInfo><FriendlyName>MyChronos</FriendlyName><DeviceIndex>1</DeviceIndex><SerialNumber>CHR-04301-1186</SerialNumber><EBNVersion>3.0.3.80</EBNVersion><FirmwareVersion>1.33</FirmwareVersion><APIVersion>1.33</APIVersion><USBHostControllerVersion>2.0</USBHostControllerVersion><USBConnectionRoute>USB#ROOT_HUB20#4&9bd2e8a&0#{f18a0e88-c30c-11d0-8815-00a0c906bed8} + USB#VID_8087&PID_0024#5&3026c139&0&1#{f18a0e88-c30c-11d0-8815-00a0c906bed8}(1) + VID_2266&PID_0007(7)</USBConnectionRoute></ChronosDeviceInfo>;"<?xml version=""1.0""?>\n<Clock xmlns:dt=""urn:schemas-microsoft-com:datatypes""><Description dt:dt=""string"">E-Prime Primary Realtime Clock</Description><StartTime><Timestamp dt:dt=""int"">0</Timestamp><DateUtc dt:dt=""string"">2021-04-30T09:16:02Z</DateUtc></StartTime><FrequencyChanges><FrequencyChange><Frequency dt:dt=""r8"">2435566</Frequency><Timestamp dt:dt=""r8"">18505308075</Timestamp><Current dt:dt=""r8"">0</Current><DateUtc dt:dt=""string"">2021-04-30T09:16:02Z</DateUtc></FrequencyChange></FrequencyChanges></Clock>\n";EXP2.2_290421-10004-1;60.024;1.0.0.340;1;Chronos;1325870774;Full;3.0.3.80;3.0.3.80;04-30-2021;30/04/2021 09:16;11:16:02;3.0.3.82;2;;2;1;2;TESTVV;Generalbloc;;;;pretest;Chronos;39;1;VV_290421/880.png;2;1;39;-20;blocVVstim;listVVTrial;;;;Chronos;0;;0;-1;206574;200;;0;0;1;1;Chronos;0;0;206774;300;1;413;207187;1;1;Chronos;0;0;207074;0;1;113;207187;;;;;;;;;;;;;;;;;;;
EXP2.2_290421;10004;1;<ChronosDeviceInfo><FriendlyName>MyChronos</FriendlyName><DeviceIndex>1</DeviceIndex><SerialNumber>CHR-04301-1186</SerialNumber><EBNVersion>3.0.3.80</EBNVersion><FirmwareVersion>1.33</FirmwareVersion><APIVersion>1.33</APIVersion><USBHostControllerVersion>2.0</USBHostControllerVersion><USBConnectionRoute>USB#ROOT_HUB20#4&9bd2e8a&0#{f18a0e88-c30c-11d0-8815-00a0c906bed8} + USB#VID_8087&PID_0024#5&3026c139&0&1#{f18a0e88-c30c-11d0-8815-00a0c906bed8}(1) + VID_2266&PID_0007(7)</USBConnectionRoute></ChronosDeviceInfo>;"<?xml version=""1.0""?>\n<Clock xmlns:dt=""urn:schemas-microsoft-com:datatypes""><Description dt:dt=""string"">E-Prime Primary Realtime Clock</Description><StartTime><Timestamp dt:dt=""int"">0</Timestamp><DateUtc dt:dt=""string"">2021-04-30T09:16:02Z</DateUtc></StartTime><FrequencyChanges><FrequencyChange><Frequency dt:dt=""r8"">2435566</Frequency><Timestamp dt:dt=""r8"">18505308075</Timestamp><Current dt:dt=""r8"">0</Current><DateUtc dt:dt=""string"">2021-04-30T09:16:02Z</DateUtc></FrequencyChange></FrequencyChanges></Clock>\n";EXP2.2_290421-10004-1;60.024;1.0.0.340;1;Chronos;1325870774;Full;3.0.3.80;3.0.3.80;04-30-2021;30/04/2021 09:16;11:16:02;3.0.3.82;2;;2;1;2;TESTVV;Generalbloc;;;;pretest;Chronos;40;5;VV_290421/925.png;11;1;40;25;blocVVstim;listVVTrial;;;;Chronos;0;;0;0;208707;200;;0;0;1;5;Chronos;0;0;208907;300;5;682;209589;1;5;Chronos;0;0;209207;0;5;382;209589;;;;;;;;;;;;;;;;;;;
EXP2.2_290421;10004;1;<ChronosDeviceInfo><FriendlyName>MyChronos</FriendlyName><DeviceIndex>1</DeviceIndex><SerialNumber>CHR-04301-1186</SerialNumber><EBNVersion>3.0.3.80</EBNVersion><FirmwareVersion>1.33</FirmwareVersion><APIVersion>1.33</APIVersion><USBHostControllerVersion>2.0</USBHostControllerVersion><USBConnectionRoute>USB#ROOT_HUB20#4&9bd2e8a&0#{f18a0e88-c30c-11d0-8815-00a0c906bed8} + USB#VID_8087&PID_0024#5&3026c139&0&1#{f18a0e88-c30c-11d0-8815-00a0c906bed8}(1) + VID_2266&PID_0007(7)</USBConnectionRoute></ChronosDeviceInfo>;"<?xml version=""1.0""?>\n<Clock xmlns:dt=""urn:schemas-microsoft-com:datatypes""><Description dt:dt=""string"">E-Prime Primary Realtime Clock</Description><StartTime><Timestamp dt:dt=""int"">0</Timestamp><DateUtc dt:dt=""string"">2021-04-30T09:16:02Z</DateUtc></StartTime><FrequencyChanges><FrequencyChange><Frequency dt:dt=""r8"">2435566</Frequency><Timestamp dt:dt=""r8"">18505308075</Timestamp><Current dt:dt=""r8"">0</Current><DateUtc dt:dt=""string"">2021-04-30T09:16:02Z</DateUtc></FrequencyChange></FrequencyChanges></Clock>\n";EXP2.2_290421-10004-1;60.024;1.0.0.340;1;Chronos;1325870774;Full;3.0.3.80;3.0.3.80;04-30-2021;30/04/2021 09:16;11:16:02;3.0.3.82;2;;2;1;2;TESTVV;Generalbloc;;;;pretest;Chronos;41;1;VV_290421/885.png;3;1;41;-15;blocVVstim;listVVTrial;;;;Chronos;0;;0;0;211106;200;;0;0;1;1;Chronos;0;0;211306;300;1;526;211832;1;1;Chronos;0;0;211606;0;1;226;211832;;;;;;;;;;;;;;;;;;;
EXP2.2_290421;10004;1;<ChronosDeviceInfo><FriendlyName>MyChronos</FriendlyName><DeviceIndex>1</DeviceIndex><SerialNumber>CHR-04301-1186</SerialNumber><EBNVersion>3.0.3.80</EBNVersion><FirmwareVersion>1.33</FirmwareVersion><APIVersion>1.33</APIVersion><USBHostControllerVersion>2.0</USBHostControllerVersion><USBConnectionRoute>USB#ROOT_HUB20#4&9bd2e8a&0#{f18a0e88-c30c-11d0-8815-00a0c906bed8} + USB#VID_8087&PID_0024#5&3026c139&0&1#{f18a0e88-c30c-11d0-8815-00a0c906bed8}(1) + VID_2266&PID_0007(7)</USBConnectionRoute></ChronosDeviceInfo>;"<?xml version=""1.0""?>\n<Clock xmlns:dt=""urn:schemas-microsoft-com:datatypes""><Description dt:dt=""string"">E-Prime Primary Realtime Clock</Description><StartTime><Timestamp dt:dt=""int"">0</Timestamp><DateUtc dt:dt=""string"">2021-04-30T09:16:02Z</DateUtc></StartTime><FrequencyChanges><FrequencyChange><Frequency dt:dt=""r8"">2435566</Frequency><Timestamp dt:dt=""r8"">18505308075</Timestamp><Current dt:dt=""r8"">0</Current><DateUtc dt:dt=""string"">2021-04-30T09:16:02Z</DateUtc></FrequencyChange></FrequencyChanges></Clock>\n";EXP2.2_290421-10004-1;60.024;1.0.0.340;1;Chronos;1325870774;Full;3.0.3.80;3.0.3.80;04-30-2021;30/04/2021 09:16;11:16:02;3.0.3.82;2;;2;1;2;TESTVV;Generalbloc;;;;pretest;Chronos;42;1;VV_290421/885.png;3;1;42;-15;blocVVstim;listVVTrial;;;;Chronos;0;;0;0;213355;200;;0;0;0;1;Chronos;0;0;213555;300;5;565;214120;0;1;Chronos;0;0;213855;0;5;265;214120;;;;;;;;;;;;;;;;;;;
EXP2.2_290421;10004;1;<ChronosDeviceInfo><FriendlyName>MyChronos</FriendlyName><DeviceIndex>1</DeviceIndex><SerialNumber>CHR-04301-1186</SerialNumber><EBNVersion>3.0.3.80</EBNVersion><FirmwareVersion>1.33</FirmwareVersion><APIVersion>1.33</APIVersion><USBHostControllerVersion>2.0</USBHostControllerVersion><USBConnectionRoute>USB#ROOT_HUB20#4&9bd2e8a&0#{f18a0e88-c30c-11d0-8815-00a0c906bed8} + USB#VID_8087&PID_0024#5&3026c139&0&1#{f18a0e88-c30c-11d0-8815-00a0c906bed8}(1) + VID_2266&PID_0007(7)</USBConnectionRoute></ChronosDeviceInfo>;"<?xml version=""1.0""?>\n<Clock xmlns:dt=""urn:schemas-microsoft-com:datatypes""><Description dt:dt=""string"">E-Prime Primary Realtime Clock</Description><StartTime><Timestamp dt:dt=""int"">0</Timestamp><DateUtc dt:dt=""string"">2021-04-30T09:16:02Z</DateUtc></StartTime><FrequencyChanges><FrequencyChange><Frequency dt:dt=""r8"">2435566</Frequency><Timestamp dt:dt=""r8"">18505308075</Timestamp><Current dt:dt=""r8"">0</Current><DateUtc dt:dt=""string"">2021-04-30T09:16:02Z</DateUtc></FrequencyChange></FrequencyChanges></Clock>\n";EXP2.2_290421-10004-1;60.024;1.0.0.340;1;Chronos;1325870774;Full;3.0.3.80;3.0.3.80;04-30-2021;30/04/2021 09:16;11:16:02;3.0.3.82;2;;2;1;2;TESTVV;Generalbloc;;;;pretest;Chronos;43;5;VV_290421/910.png;8;1;43;10;blocVVstim;listVVTrial;;;;Chronos;0;;1;-1;215637;200;;0;0;0;5;Chronos;0;0;215837;300;1;625;216462;0;5;Chronos;0;0;216137;0;1;325;216462;;;;;;;;;;;;;;;;;;;
EXP2.2_290421;10004;1;<ChronosDeviceInfo><FriendlyName>MyChronos</FriendlyName><DeviceIndex>1</DeviceIndex><SerialNumber>CHR-04301-1186</SerialNumber><EBNVersion>3.0.3.80</EBNVersion><FirmwareVersion>1.33</FirmwareVersion><APIVersion>1.33</APIVersion><USBHostControllerVersion>2.0</USBHostControllerVersion><USBConnectionRoute>USB#ROOT_HUB20#4&9bd2e8a&0#{f18a0e88-c30c-11d0-8815-00a0c906bed8} + USB#VID_8087&PID_0024#5&3026c139&0&1#{f18a0e88-c30c-11d0-8815-00a0c906bed8}(1) + VID_2266&PID_0007(7)</USBConnectionRoute></ChronosDeviceInfo>;"<?xml version=""1.0""?>\n<Clock xmlns:dt=""urn:schemas-microsoft-com:datatypes""><Description dt:dt=""string"">E-Prime Primary Realtime Clock</Description><StartTime><Timestamp dt:dt=""int"">0</Timestamp><DateUtc dt:dt=""string"">2021-04-30T09:16:02Z</DateUtc></StartTime><FrequencyChanges><FrequencyChange><Frequency dt:dt=""r8"">2435566</Frequency><Timestamp dt:dt=""r8"">18505308075</Timestamp><Current dt:dt=""r8"">0</Current><DateUtc dt:dt=""string"">2021-04-30T09:16:02Z</DateUtc></FrequencyChange></FrequencyChanges></Clock>\n";EXP2.2_290421-10004-1;60.024;1.0.0.340;1;Chronos;1325870774;Full;3.0.3.80;3.0.3.80;04-30-2021;30/04/2021 09:16;11:16:02;3.0.3.82;2;;2;1;2;TESTVV;Generalbloc;;;;pretest;Chronos;44;1;VV_290421/880.png;2;1;44;-20;blocVVstim;listVVTrial;;;;Chronos;0;;1;-1;217986;200;;0;0;1;1;Chronos;1;0;218186;300;1;801;218987;1;1;Chronos;0;0;218486;0;1;501;218987;;;;;;;;;;;;;;;;;;;
EXP2.2_290421;10004;1;<ChronosDeviceInfo><FriendlyName>MyChronos</FriendlyName><DeviceIndex>1</DeviceIndex><SerialNumber>CHR-04301-1186</SerialNumber><EBNVersion>3.0.3.80</EBNVersion><FirmwareVersion>1.33</FirmwareVersion><APIVersion>1.33</APIVersion><USBHostControllerVersion>2.0</USBHostControllerVersion><USBConnectionRoute>USB#ROOT_HUB20#4&9bd2e8a&0#{f18a0e88-c30c-11d0-8815-00a0c906bed8} + USB#VID_8087&PID_0024#5&3026c139&0&1#{f18a0e88-c30c-11d0-8815-00a0c906bed8}(1) + VID_2266&PID_0007(7)</USBConnectionRoute></ChronosDeviceInfo>;"<?xml version=""1.0""?>\n<Clock xmlns:dt=""urn:schemas-microsoft-com:datatypes""><Description dt:dt=""string"">E-Prime Primary Realtime Clock</Description><StartTime><Timestamp dt:dt=""int"">0</Timestamp><DateUtc dt:dt=""string"">2021-04-30T09:16:02Z</DateUtc></StartTime><FrequencyChanges><FrequencyChange><Frequency dt:dt=""r8"">2435566</Frequency><Timestamp dt:dt=""r8"">18505308075</Timestamp><Current dt:dt=""r8"">0</Current><DateUtc dt:dt=""string"">2021-04-30T09:16:02Z</DateUtc></FrequencyChange></FrequencyChanges></Clock>\n";EXP2.2_290421-10004-1;60.024;1.0.0.340;1;Chronos;1325870774;Full;3.0.3.80;3.0.3.80;04-30-2021;30/04/2021 09:16;11:16:02;3.0.3.82;2;;2;1;2;TESTVV;Generalbloc;;;;pretest;Chronos;45;5;VV_290421/925.png;11;1;45;25;blocVVstim;listVVTrial;;;;Chronos;0;;0;-1;220502;200;;0;0;0;5;Chronos;0;0;220702;300;1;679;221381;0;5;Chronos;0;0;221002;0;1;379;221381;;;;;;;;;;;;;;;;;;;
EXP2.2_290421;10004;1;<ChronosDeviceInfo><FriendlyName>MyChronos</FriendlyName><DeviceIndex>1</DeviceIndex><SerialNumber>CHR-04301-1186</SerialNumber><EBNVersion>3.0.3.80</EBNVersion><FirmwareVersion>1.33</FirmwareVersion><APIVersion>1.33</APIVersion><USBHostControllerVersion>2.0</USBHostControllerVersion><USBConnectionRoute>USB#ROOT_HUB20#4&9bd2e8a&0#{f18a0e88-c30c-11d0-8815-00a0c906bed8} + USB#VID_8087&PID_0024#5&3026c139&0&1#{f18a0e88-c30c-11d0-8815-00a0c906bed8}(1) + VID_2266&PID_0007(7)</USBConnectionRoute></ChronosDeviceInfo>;"<?xml version=""1.0""?>\n<Clock xmlns:dt=""urn:schemas-microsoft-com:datatypes""><Description dt:dt=""string"">E-Prime Primary Realtime Clock</Description><StartTime><Timestamp dt:dt=""int"">0</Timestamp><DateUtc dt:dt=""string"">2021-04-30T09:16:02Z</DateUtc></StartTime><FrequencyChanges><FrequencyChange><Frequency dt:dt=""r8"">2435566</Frequency><Timestamp dt:dt=""r8"">18505308075</Timestamp><Current dt:dt=""r8"">0</Current><DateUtc dt:dt=""string"">2021-04-30T09:16:02Z</DateUtc></FrequencyChange></FrequencyChanges></Clock>\n";EXP2.2_290421-10004-1;60.024;1.0.0.340;1;Chronos;1325870774;Full;3.0.3.80;3.0.3.80;04-30-2021;30/04/2021 09:16;11:16:02;3.0.3.82;2;;2;1;2;TESTVV;Generalbloc;;;;pretest;Chronos;46;5;VV_290421/920.png;10;1;46;20;blocVVstim;listVVTrial;;;;Chronos;0;;0;-1;222901;200;;0;0;0;5;Chronos;0;0;223101;300;1;1127;224228;0;5;Chronos;0;0;223401;0;1;827;224228;;;;;;;;;;;;;;;;;;;
EXP2.2_290421;10004;1;<ChronosDeviceInfo><FriendlyName>MyChronos</FriendlyName><DeviceIndex>1</DeviceIndex><SerialNumber>CHR-04301-1186</SerialNumber><EBNVersion>3.0.3.80</EBNVersion><FirmwareVersion>1.33</FirmwareVersion><APIVersion>1.33</APIVersion><USBHostControllerVersion>2.0</USBHostControllerVersion><USBConnectionRoute>USB#ROOT_HUB20#4&9bd2e8a&0#{f18a0e88-c30c-11d0-8815-00a0c906bed8} + USB#VID_8087&PID_0024#5&3026c139&0&1#{f18a0e88-c30c-11d0-8815-00a0c906bed8}(1) + VID_2266&PID_0007(7)</USBConnectionRoute></ChronosDeviceInfo>;"<?xml version=""1.0""?>\n<Clock xmlns:dt=""urn:schemas-microsoft-com:datatypes""><Description dt:dt=""string"">E-Prime Primary Realtime Clock</Description><StartTime><Timestamp dt:dt=""int"">0</Timestamp><DateUtc dt:dt=""string"">2021-04-30T09:16:02Z</DateUtc></StartTime><FrequencyChanges><FrequencyChange><Frequency dt:dt=""r8"">2435566</Frequency><Timestamp dt:dt=""r8"">18505308075</Timestamp><Current dt:dt=""r8"">0</Current><DateUtc dt:dt=""string"">2021-04-30T09:16:02Z</DateUtc></FrequencyChange></FrequencyChanges></Clock>\n";EXP2.2_290421-10004-1;60.024;1.0.0.340;1;Chronos;1325870774;Full;3.0.3.80;3.0.3.80;04-30-2021;30/04/2021 09:16;11:16:02;3.0.3.82;2;;2;1;2;TESTVV;Generalbloc;;;;pretest;Chronos;47;1;VV_290421/875.png;1;1;47;-25;blocVVstim;listVVTrial;;;;Chronos;0;;0;-1;225750;200;;0;0;0;1;Chronos;0;0;225950;300;5;1066;227016;0;1;Chronos;0;0;226250;0;5;766;227016;;;;;;;;;;;;;;;;;;;
EXP2.2_290421;10004;1;<ChronosDeviceInfo><FriendlyName>MyChronos</FriendlyName><DeviceIndex>1</DeviceIndex><SerialNumber>CHR-04301-1186</SerialNumber><EBNVersion>3.0.3.80</EBNVersion><FirmwareVersion>1.33</FirmwareVersion><APIVersion>1.33</APIVersion><USBHostControllerVersion>2.0</USBHostControllerVersion><USBConnectionRoute>USB#ROOT_HUB20#4&9bd2e8a&0#{f18a0e88-c30c-11d0-8815-00a0c906bed8} + USB#VID_8087&PID_0024#5&3026c139&0&1#{f18a0e88-c30c-11d0-8815-00a0c906bed8}(1) + VID_2266&PID_0007(7)</USBConnectionRoute></ChronosDeviceInfo>;"<?xml version=""1.0""?>\n<Clock xmlns:dt=""urn:schemas-microsoft-com:datatypes""><Description dt:dt=""string"">E-Prime Primary Realtime Clock</Description><StartTime><Timestamp dt:dt=""int"">0</Timestamp><DateUtc dt:dt=""string"">2021-04-30T09:16:02Z</DateUtc></StartTime><FrequencyChanges><FrequencyChange><Frequency dt:dt=""r8"">2435566</Frequency><Timestamp dt:dt=""r8"">18505308075</Timestamp><Current dt:dt=""r8"">0</Current><DateUtc dt:dt=""string"">2021-04-30T09:16:02Z</DateUtc></FrequencyChange></FrequencyChanges></Clock>\n";EXP2.2_290421-10004-1;60.024;1.0.0.340;1;Chronos;1325870774;Full;3.0.3.80;3.0.3.80;04-30-2021;30/04/2021 09:16;11:16:02;3.0.3.82;2;;2;1;2;TESTVV;Generalbloc;;;;pretest;Chronos;48;1;VV_290421/895.png;5;1;48;-5;blocVVstim;listVVTrial;;;;Chronos;0;;1;-1;228532;200;;0;0;0;1;Chronos;1;0;228732;300;5;676;229408;0;1;Chronos;0;0;229032;0;5;376;229408;;;;;;;;;;;;;;;;;;;
EXP2.2_290421;10004;1;<ChronosDeviceInfo><FriendlyName>MyChronos</FriendlyName><DeviceIndex>1</DeviceIndex><SerialNumber>CHR-04301-1186</SerialNumber><EBNVersion>3.0.3.80</EBNVersion><FirmwareVersion>1.33</FirmwareVersion><APIVersion>1.33</APIVersion><USBHostControllerVersion>2.0</USBHostControllerVersion><USBConnectionRoute>USB#ROOT_HUB20#4&9bd2e8a&0#{f18a0e88-c30c-11d0-8815-00a0c906bed8} + USB#VID_8087&PID_0024#5&3026c139&0&1#{f18a0e88-c30c-11d0-8815-00a0c906bed8}(1) + VID_2266&PID_0007(7)</USBConnectionRoute></ChronosDeviceInfo>;"<?xml version=""1.0""?>\n<Clock xmlns:dt=""urn:schemas-microsoft-com:datatypes""><Description dt:dt=""string"">E-Prime Primary Realtime Clock</Description><StartTime><Timestamp dt:dt=""int"">0</Timestamp><DateUtc dt:dt=""string"">2021-04-30T09:16:02Z</DateUtc></StartTime><FrequencyChanges><FrequencyChange><Frequency dt:dt=""r8"">2435566</Frequency><Timestamp dt:dt=""r8"">18505308075</Timestamp><Current dt:dt=""r8"">0</Current><DateUtc dt:dt=""string"">2021-04-30T09:16:02Z</DateUtc></FrequencyChange></FrequencyChanges></Clock>\n";EXP2.2_290421-10004-1;60.024;1.0.0.340;1;Chronos;1325870774;Full;3.0.3.80;3.0.3.80;04-30-2021;30/04/2021 09:16;11:16:02;3.0.3.82;2;;2;1;2;TESTVV;Generalbloc;;;;pretest;Chronos;49;5;VV_290421/910.png;8;1;49;10;blocVVstim;listVVTrial;;;;Chronos;0;;0;0;230932;199;;0;0;0;5;Chronos;1;-1;231131;300;1;803;231934;0;5;Chronos;0;0;231431;0;1;503;231934;;;;;;;;;;;;;;;;;;;
EXP2.2_290421;10004;1;<ChronosDeviceInfo><FriendlyName>MyChronos</FriendlyName><DeviceIndex>1</DeviceIndex><SerialNumber>CHR-04301-1186</SerialNumber><EBNVersion>3.0.3.80</EBNVersion><FirmwareVersion>1.33</FirmwareVersion><APIVersion>1.33</APIVersion><USBHostControllerVersion>2.0</USBHostControllerVersion><USBConnectionRoute>USB#ROOT_HUB20#4&9bd2e8a&0#{f18a0e88-c30c-11d0-8815-00a0c906bed8} + USB#VID_8087&PID_0024#5&3026c139&0&1#{f18a0e88-c30c-11d0-8815-00a0c906bed8}(1) + VID_2266&PID_0007(7)</USBConnectionRoute></ChronosDeviceInfo>;"<?xml version=""1.0""?>\n<Clock xmlns:dt=""urn:schemas-microsoft-com:datatypes""><Description dt:dt=""string"">E-Prime Primary Realtime Clock</Description><StartTime><Timestamp dt:dt=""int"">0</Timestamp><DateUtc dt:dt=""string"">2021-04-30T09:16:02Z</DateUtc></StartTime><FrequencyChanges><FrequencyChange><Frequency dt:dt=""r8"">2435566</Frequency><Timestamp dt:dt=""r8"">18505308075</Timestamp><Current dt:dt=""r8"">0</Current><DateUtc dt:dt=""string"">2021-04-30T09:16:02Z</DateUtc></FrequencyChange></FrequencyChanges></Clock>\n";EXP2.2_290421-10004-1;60.024;1.0.0.340;1;Chronos;1325870774;Full;3.0.3.80;3.0.3.80;04-30-2021;30/04/2021 09:16;11:16:02;3.0.3.82;2;;2;1;2;TESTVV;Generalbloc;;;;pretest;Chronos;50;1;VV_290421/875.png;1;1;50;-25;blocVVstim;listVVTrial;;;;Chronos;0;;0;0;233464;200;;0;0;1;1;Chronos;0;0;233664;300;1;623;234287;1;1;Chronos;0;0;233964;0;1;323;234287;;;;;;;;;;;;;;;;;;;
EXP2.2_290421;10004;1;<ChronosDeviceInfo><FriendlyName>MyChronos</FriendlyName><DeviceIndex>1</DeviceIndex><SerialNumber>CHR-04301-1186</SerialNumber><EBNVersion>3.0.3.80</EBNVersion><FirmwareVersion>1.33</FirmwareVersion><APIVersion>1.33</APIVersion><USBHostControllerVersion>2.0</USBHostControllerVersion><USBConnectionRoute>USB#ROOT_HUB20#4&9bd2e8a&0#{f18a0e88-c30c-11d0-8815-00a0c906bed8} + USB#VID_8087&PID_0024#5&3026c139&0&1#{f18a0e88-c30c-11d0-8815-00a0c906bed8}(1) + VID_2266&PID_0007(7)</USBConnectionRoute></ChronosDeviceInfo>;"<?xml version=""1.0""?>\n<Clock xmlns:dt=""urn:schemas-microsoft-com:datatypes""><Description dt:dt=""string"">E-Prime Primary Realtime Clock</Description><StartTime><Timestamp dt:dt=""int"">0</Timestamp><DateUtc dt:dt=""string"">2021-04-30T09:16:02Z</DateUtc></StartTime><FrequencyChanges><FrequencyChange><Frequency dt:dt=""r8"">2435566</Frequency><Timestamp dt:dt=""r8"">18505308075</Timestamp><Current dt:dt=""r8"">0</Current><DateUtc dt:dt=""string"">2021-04-30T09:16:02Z</DateUtc></FrequencyChange></FrequencyChanges></Clock>\n";EXP2.2_290421-10004-1;60.024;1.0.0.340;1;Chronos;1325870774;Full;3.0.3.80;3.0.3.80;04-30-2021;30/04/2021 09:16;11:16:02;3.0.3.82;2;;2;1;2;TESTVV;Generalbloc;;;;pretest;Chronos;51;5;VV_290421/905.png;7;1;51;5;blocVVstim;listVVTrial;;;;Chronos;0;;0;-1;235813;200;;0;0;1;5;Chronos;0;0;236013;300;5;638;236651;1;5;Chronos;0;0;236313;0;5;338;236651;;;;;;;;;;;;;;;;;;;
EXP2.2_290421;10004;1;<ChronosDeviceInfo><FriendlyName>MyChronos</FriendlyName><DeviceIndex>1</DeviceIndex><SerialNumber>CHR-04301-1186</SerialNumber><EBNVersion>3.0.3.80</EBNVersion><FirmwareVersion>1.33</FirmwareVersion><APIVersion>1.33</APIVersion><USBHostControllerVersion>2.0</USBHostControllerVersion><USBConnectionRoute>USB#ROOT_HUB20#4&9bd2e8a&0#{f18a0e88-c30c-11d0-8815-00a0c906bed8} + USB#VID_8087&PID_0024#5&3026c139&0&1#{f18a0e88-c30c-11d0-8815-00a0c906bed8}(1) + VID_2266&PID_0007(7)</USBConnectionRoute></ChronosDeviceInfo>;"<?xml version=""1.0""?>\n<Clock xmlns:dt=""urn:schemas-microsoft-com:datatypes""><Description dt:dt=""string"">E-Prime Primary Realtime Clock</Description><StartTime><Timestamp dt:dt=""int"">0</Timestamp><DateUtc dt:dt=""string"">2021-04-30T09:16:02Z</DateUtc></StartTime><FrequencyChanges><FrequencyChange><Frequency dt:dt=""r8"">2435566</Frequency><Timestamp dt:dt=""r8"">18505308075</Timestamp><Current dt:dt=""r8"">0</Current><DateUtc dt:dt=""string"">2021-04-30T09:16:02Z</DateUtc></FrequencyChange></FrequencyChanges></Clock>\n";EXP2.2_290421-10004-1;60.024;1.0.0.340;1;Chronos;1325870774;Full;3.0.3.80;3.0.3.80;04-30-2021;30/04/2021 09:16;11:16:02;3.0.3.82;2;;2;1;2;TESTVV;Generalbloc;;;;pretest;Chronos;52;5;VV_290421/920.png;10;1;52;20;blocVVstim;listVVTrial;;;;Chronos;0;;0;0;238179;200;;0;0;1;5;Chronos;0;0;238379;300;5;732;239111;1;5;Chronos;0;0;238679;0;5;432;239111;;;;;;;;;;;;;;;;;;;
EXP2.2_290421;10004;1;<ChronosDeviceInfo><FriendlyName>MyChronos</FriendlyName><DeviceIndex>1</DeviceIndex><SerialNumber>CHR-04301-1186</SerialNumber><EBNVersion>3.0.3.80</EBNVersion><FirmwareVersion>1.33</FirmwareVersion><APIVersion>1.33</APIVersion><USBHostControllerVersion>2.0</USBHostControllerVersion><USBConnectionRoute>USB#ROOT_HUB20#4&9bd2e8a&0#{f18a0e88-c30c-11d0-8815-00a0c906bed8} + USB#VID_8087&PID_0024#5&3026c139&0&1#{f18a0e88-c30c-11d0-8815-00a0c906bed8}(1) + VID_2266&PID_0007(7)</USBConnectionRoute></ChronosDeviceInfo>;"<?xml version=""1.0""?>\n<Clock xmlns:dt=""urn:schemas-microsoft-com:datatypes""><Description dt:dt=""string"">E-Prime Primary Realtime Clock</Description><StartTime><Timestamp dt:dt=""int"">0</Timestamp><DateUtc dt:dt=""string"">2021-04-30T09:16:02Z</DateUtc></StartTime><FrequencyChanges><FrequencyChange><Frequency dt:dt=""r8"">2435566</Frequency><Timestamp dt:dt=""r8"">18505308075</Timestamp><Current dt:dt=""r8"">0</Current><DateUtc dt:dt=""string"">2021-04-30T09:16:02Z</DateUtc></FrequencyChange></FrequencyChanges></Clock>\n";EXP2.2_290421-10004-1;60.024;1.0.0.340;1;Chronos;1325870774;Full;3.0.3.80;3.0.3.80;04-30-2021;30/04/2021 09:16;11:16:02;3.0.3.82;2;;2;1;2;TESTVV;Generalbloc;;;;pretest;Chronos;53;5;VV_290421/925.png;11;1;53;25;blocVVstim;listVVTrial;;;;Chronos;0;;0;0;240628;200;;0;0;0;5;Chronos;0;0;240828;300;1;548;241376;0;5;Chronos;0;0;241128;0;1;248;241376;;;;;;;;;;;;;;;;;;;
EXP2.2_290421;10004;1;<ChronosDeviceInfo><FriendlyName>MyChronos</FriendlyName><DeviceIndex>1</DeviceIndex><SerialNumber>CHR-04301-1186</SerialNumber><EBNVersion>3.0.3.80</EBNVersion><FirmwareVersion>1.33</FirmwareVersion><APIVersion>1.33</APIVersion><USBHostControllerVersion>2.0</USBHostControllerVersion><USBConnectionRoute>USB#ROOT_HUB20#4&9bd2e8a&0#{f18a0e88-c30c-11d0-8815-00a0c906bed8} + USB#VID_8087&PID_0024#5&3026c139&0&1#{f18a0e88-c30c-11d0-8815-00a0c906bed8}(1) + VID_2266&PID_0007(7)</USBConnectionRoute></ChronosDeviceInfo>;"<?xml version=""1.0""?>\n<Clock xmlns:dt=""urn:schemas-microsoft-com:datatypes""><Description dt:dt=""string"">E-Prime Primary Realtime Clock</Description><StartTime><Timestamp dt:dt=""int"">0</Timestamp><DateUtc dt:dt=""string"">2021-04-30T09:16:02Z</DateUtc></StartTime><FrequencyChanges><FrequencyChange><Frequency dt:dt=""r8"">2435566</Frequency><Timestamp dt:dt=""r8"">18505308075</Timestamp><Current dt:dt=""r8"">0</Current><DateUtc dt:dt=""string"">2021-04-30T09:16:02Z</DateUtc></FrequencyChange></FrequencyChanges></Clock>\n";EXP2.2_290421-10004-1;60.024;1.0.0.340;1;Chronos;1325870774;Full;3.0.3.80;3.0.3.80;04-30-2021;30/04/2021 09:16;11:16:02;3.0.3.82;2;;2;1;2;TESTVV;Generalbloc;;;;pretest;Chronos;54;1;VV_290421/895.png;5;1;54;-5;blocVVstim;listVVTrial;;;;Chronos;0;;0;0;242894;200;;0;0;0;1;Chronos;0;0;243094;299;5;674;243768;0;1;Chronos;1;-1;243393;0;5;375;243768;;;;;;;;;;;;;;;;;;;
EXP2.2_290421;10004;1;<ChronosDeviceInfo><FriendlyName>MyChronos</FriendlyName><DeviceIndex>1</DeviceIndex><SerialNumber>CHR-04301-1186</SerialNumber><EBNVersion>3.0.3.80</EBNVersion><FirmwareVersion>1.33</FirmwareVersion><APIVersion>1.33</APIVersion><USBHostControllerVersion>2.0</USBHostControllerVersion><USBConnectionRoute>USB#ROOT_HUB20#4&9bd2e8a&0#{f18a0e88-c30c-11d0-8815-00a0c906bed8} + USB#VID_8087&PID_0024#5&3026c139&0&1#{f18a0e88-c30c-11d0-8815-00a0c906bed8}(1) + VID_2266&PID_0007(7)</USBConnectionRoute></ChronosDeviceInfo>;"<?xml version=""1.0""?>\n<Clock xmlns:dt=""urn:schemas-microsoft-com:datatypes""><Description dt:dt=""string"">E-Prime Primary Realtime Clock</Description><StartTime><Timestamp dt:dt=""int"">0</Timestamp><DateUtc dt:dt=""string"">2021-04-30T09:16:02Z</DateUtc></StartTime><FrequencyChanges><FrequencyChange><Frequency dt:dt=""r8"">2435566</Frequency><Timestamp dt:dt=""r8"">18505308075</Timestamp><Current dt:dt=""r8"">0</Current><DateUtc dt:dt=""string"">2021-04-30T09:16:02Z</DateUtc></FrequencyChange></FrequencyChanges></Clock>\n";EXP2.2_290421-10004-1;60.024;1.0.0.340;1;Chronos;1325870774;Full;3.0.3.80;3.0.3.80;04-30-2021;30/04/2021 09:16;11:16:02;3.0.3.82;2;;2;1;2;TESTVV;Generalbloc;;;;pretest;Chronos;55;5;VV_290421/925.png;11;1;55;25;blocVVstim;listVVTrial;;;;Chronos;0;;0;0;245293;200;;0;0;0;5;Chronos;0;0;245493;0;1;253;245746;0;;;-999999;0;0;0;;0;0;;;;;;;;;;;;;;;;;;;
EXP2.2_290421;10004;1;<ChronosDeviceInfo><FriendlyName>MyChronos</FriendlyName><DeviceIndex>1</DeviceIndex><SerialNumber>CHR-04301-1186</SerialNumber><EBNVersion>3.0.3.80</EBNVersion><FirmwareVersion>1.33</FirmwareVersion><APIVersion>1.33</APIVersion><USBHostControllerVersion>2.0</USBHostControllerVersion><USBConnectionRoute>USB#ROOT_HUB20#4&9bd2e8a&0#{f18a0e88-c30c-11d0-8815-00a0c906bed8} + USB#VID_8087&PID_0024#5&3026c139&0&1#{f18a0e88-c30c-11d0-8815-00a0c906bed8}(1) + VID_2266&PID_0007(7)</USBConnectionRoute></ChronosDeviceInfo>;"<?xml version=""1.0""?>\n<Clock xmlns:dt=""urn:schemas-microsoft-com:datatypes""><Description dt:dt=""string"">E-Prime Primary Realtime Clock</Description><StartTime><Timestamp dt:dt=""int"">0</Timestamp><DateUtc dt:dt=""string"">2021-04-30T09:16:02Z</DateUtc></StartTime><FrequencyChanges><FrequencyChange><Frequency dt:dt=""r8"">2435566</Frequency><Timestamp dt:dt=""r8"">18505308075</Timestamp><Current dt:dt=""r8"">0</Current><DateUtc dt:dt=""string"">2021-04-30T09:16:02Z</DateUtc></FrequencyChange></FrequencyChanges></Clock>\n";EXP2.2_290421-10004-1;60.024;1.0.0.340;1;Chronos;1325870774;Full;3.0.3.80;3.0.3.80;04-30-2021;30/04/2021 09:16;11:16:02;3.0.3.82;2;;2;1;2;TESTVV;Generalbloc;;;;pretest;Chronos;56;5;VV_290421/910.png;8;1;56;10;blocVVstim;listVVTrial;;;;Chronos;0;;0;-1;247325;200;;0;0;1;5;Chronos;0;0;247525;0;5;154;247679;0;;;-999999;0;0;0;;0;0;;;;;;;;;;;;;;;;;;;
EXP2.2_290421;10004;1;<ChronosDeviceInfo><FriendlyName>MyChronos</FriendlyName><DeviceIndex>1</DeviceIndex><SerialNumber>CHR-04301-1186</SerialNumber><EBNVersion>3.0.3.80</EBNVersion><FirmwareVersion>1.33</FirmwareVersion><APIVersion>1.33</APIVersion><USBHostControllerVersion>2.0</USBHostControllerVersion><USBConnectionRoute>USB#ROOT_HUB20#4&9bd2e8a&0#{f18a0e88-c30c-11d0-8815-00a0c906bed8} + USB#VID_8087&PID_0024#5&3026c139&0&1#{f18a0e88-c30c-11d0-8815-00a0c906bed8}(1) + VID_2266&PID_0007(7)</USBConnectionRoute></ChronosDeviceInfo>;"<?xml version=""1.0""?>\n<Clock xmlns:dt=""urn:schemas-microsoft-com:datatypes""><Description dt:dt=""string"">E-Prime Primary Realtime Clock</Description><StartTime><Timestamp dt:dt=""int"">0</Timestamp><DateUtc dt:dt=""string"">2021-04-30T09:16:02Z</DateUtc></StartTime><FrequencyChanges><FrequencyChange><Frequency dt:dt=""r8"">2435566</Frequency><Timestamp dt:dt=""r8"">18505308075</Timestamp><Current dt:dt=""r8"">0</Current><DateUtc dt:dt=""string"">2021-04-30T09:16:02Z</DateUtc></FrequencyChange></FrequencyChanges></Clock>\n";EXP2.2_290421-10004-1;60.024;1.0.0.340;1;Chronos;1325870774;Full;3.0.3.80;3.0.3.80;04-30-2021;30/04/2021 09:16;11:16:02;3.0.3.82;2;;2;1;2;TESTVV;Generalbloc;;;;pretest;Chronos;57;15;VV_290421/900.png;6;1;57;0;blocVVstim;listVVTrial;;;;Chronos;0;;0;-1;249241;200;;0;0;0;15;Chronos;0;0;249441;300;5;424;249865;0;15;Chronos;0;0;249741;0;5;124;249865;;;;;;;;;;;;;;;;;;;
EXP2.2_290421;10004;1;<ChronosDeviceInfo><FriendlyName>MyChronos</FriendlyName><DeviceIndex>1</DeviceIndex><SerialNumber>CHR-04301-1186</SerialNumber><EBNVersion>3.0.3.80</EBNVersion><FirmwareVersion>1.33</FirmwareVersion><APIVersion>1.33</APIVersion><USBHostControllerVersion>2.0</USBHostControllerVersion><USBConnectionRoute>USB#ROOT_HUB20#4&9bd2e8a&0#{f18a0e88-c30c-11d0-8815-00a0c906bed8} + USB#VID_8087&PID_0024#5&3026c139&0&1#{f18a0e88-c30c-11d0-8815-00a0c906bed8}(1) + VID_2266&PID_0007(7)</USBConnectionRoute></ChronosDeviceInfo>;"<?xml version=""1.0""?>\n<Clock xmlns:dt=""urn:schemas-microsoft-com:datatypes""><Description dt:dt=""string"">E-Prime Primary Realtime Clock</Description><StartTime><Timestamp dt:dt=""int"">0</Timestamp><DateUtc dt:dt=""string"">2021-04-30T09:16:02Z</DateUtc></StartTime><FrequencyChanges><FrequencyChange><Frequency dt:dt=""r8"">2435566</Frequency><Timestamp dt:dt=""r8"">18505308075</Timestamp><Current dt:dt=""r8"">0</Current><DateUtc dt:dt=""string"">2021-04-30T09:16:02Z</DateUtc></FrequencyChange></FrequencyChanges></Clock>\n";EXP2.2_290421-10004-1;60.024;1.0.0.340;1;Chronos;1325870774;Full;3.0.3.80;3.0.3.80;04-30-2021;30/04/2021 09:16;11:16:02;3.0.3.82;2;;2;1;2;TESTVV;Generalbloc;;;;pretest;Chronos;58;5;VV_290421/905.png;7;1;58;5;blocVVstim;listVVTrial;;;;Chronos;0;;1;-1;251390;200;;0;0;1;5;Chronos;0;0;251590;300;5;857;252447;1;5;Chronos;0;0;251890;0;5;557;252447;;;;;;;;;;;;;;;;;;;
EXP2.2_290421;10004;1;<ChronosDeviceInfo><FriendlyName>MyChronos</FriendlyName><DeviceIndex>1</DeviceIndex><SerialNumber>CHR-04301-1186</SerialNumber><EBNVersion>3.0.3.80</EBNVersion><FirmwareVersion>1.33</FirmwareVersion><APIVersion>1.33</APIVersion><USBHostControllerVersion>2.0</USBHostControllerVersion><USBConnectionRoute>USB#ROOT_HUB20#4&9bd2e8a&0#{f18a0e88-c30c-11d0-8815-00a0c906bed8} + USB#VID_8087&PID_0024#5&3026c139&0&1#{f18a0e88-c30c-11d0-8815-00a0c906bed8}(1) + VID_2266&PID_0007(7)</USBConnectionRoute></ChronosDeviceInfo>;"<?xml version=""1.0""?>\n<Clock xmlns:dt=""urn:schemas-microsoft-com:datatypes""><Description dt:dt=""string"">E-Prime Primary Realtime Clock</Description><StartTime><Timestamp dt:dt=""int"">0</Timestamp><DateUtc dt:dt=""string"">2021-04-30T09:16:02Z</DateUtc></StartTime><FrequencyChanges><FrequencyChange><Frequency dt:dt=""r8"">2435566</Frequency><Timestamp dt:dt=""r8"">18505308075</Timestamp><Current dt:dt=""r8"">0</Current><DateUtc dt:dt=""string"">2021-04-30T09:16:02Z</DateUtc></FrequencyChange></FrequencyChanges></Clock>\n";EXP2.2_290421-10004-1;60.024;1.0.0.340;1;Chronos;1325870774;Full;3.0.3.80;3.0.3.80;04-30-2021;30/04/2021 09:16;11:16:02;3.0.3.82;2;;2;1;2;TESTVV;Generalbloc;;;;pretest;Chronos;59;5;VV_290421/905.png;7;1;59;5;blocVVstim;listVVTrial;;;;Chronos;0;;0;0;253973;200;;0;0;1;5;Chronos;0;0;254173;300;5;1126;255299;1;5;Chronos;0;0;254473;0;5;826;255299;;;;;;;;;;;;;;;;;;;
EXP2.2_290421;10004;1;<ChronosDeviceInfo><FriendlyName>MyChronos</FriendlyName><DeviceIndex>1</DeviceIndex><SerialNumber>CHR-04301-1186</SerialNumber><EBNVersion>3.0.3.80</EBNVersion><FirmwareVersion>1.33</FirmwareVersion><APIVersion>1.33</APIVersion><USBHostControllerVersion>2.0</USBHostControllerVersion><USBConnectionRoute>USB#ROOT_HUB20#4&9bd2e8a&0#{f18a0e88-c30c-11d0-8815-00a0c906bed8} + USB#VID_8087&PID_0024#5&3026c139&0&1#{f18a0e88-c30c-11d0-8815-00a0c906bed8}(1) + VID_2266&PID_0007(7)</USBConnectionRoute></ChronosDeviceInfo>;"<?xml version=""1.0""?>\n<Clock xmlns:dt=""urn:schemas-microsoft-com:datatypes""><Description dt:dt=""string"">E-Prime Primary Realtime Clock</Description><StartTime><Timestamp dt:dt=""int"">0</Timestamp><DateUtc dt:dt=""string"">2021-04-30T09:16:02Z</DateUtc></StartTime><FrequencyChanges><FrequencyChange><Frequency dt:dt=""r8"">2435566</Frequency><Timestamp dt:dt=""r8"">18505308075</Timestamp><Current dt:dt=""r8"">0</Current><DateUtc dt:dt=""string"">2021-04-30T09:16:02Z</DateUtc></FrequencyChange></FrequencyChanges></Clock>\n";EXP2.2_290421-10004-1;60.024;1.0.0.340;1;Chronos;1325870774;Full;3.0.3.80;3.0.3.80;04-30-2021;30/04/2021 09:16;11:16:02;3.0.3.82;2;;2;1;2;TESTVV;Generalbloc;;;;pretest;Chronos;60;5;VV_290421/915.png;9;1;60;15;blocVVstim;listVVTrial;;;;Chronos;0;;0;0;256822;200;;0;0;0;5;Chronos;0;0;257022;299;1;533;257555;0;5;Chronos;1;-1;257321;0;1;234;257555;;;;;;;;;;;;;;;;;;;
EXP2.2_290421;10004;1;<ChronosDeviceInfo><FriendlyName>MyChronos</FriendlyName><DeviceIndex>1</DeviceIndex><SerialNumber>CHR-04301-1186</SerialNumber><EBNVersion>3.0.3.80</EBNVersion><FirmwareVersion>1.33</FirmwareVersion><APIVersion>1.33</APIVersion><USBHostControllerVersion>2.0</USBHostControllerVersion><USBConnectionRoute>USB#ROOT_HUB20#4&9bd2e8a&0#{f18a0e88-c30c-11d0-8815-00a0c906bed8} + USB#VID_8087&PID_0024#5&3026c139&0&1#{f18a0e88-c30c-11d0-8815-00a0c906bed8}(1) + VID_2266&PID_0007(7)</USBConnectionRoute></ChronosDeviceInfo>;"<?xml version=""1.0""?>\n<Clock xmlns:dt=""urn:schemas-microsoft-com:datatypes""><Description dt:dt=""string"">E-Prime Primary Realtime Clock</Description><StartTime><Timestamp dt:dt=""int"">0</Timestamp><DateUtc dt:dt=""string"">2021-04-30T09:16:02Z</DateUtc></StartTime><FrequencyChanges><FrequencyChange><Frequency dt:dt=""r8"">2435566</Frequency><Timestamp dt:dt=""r8"">18505308075</Timestamp><Current dt:dt=""r8"">0</Current><DateUtc dt:dt=""string"">2021-04-30T09:16:02Z</DateUtc></FrequencyChange></FrequencyChanges></Clock>\n";EXP2.2_290421-10004-1;60.024;1.0.0.340;1;Chronos;1325870774;Full;3.0.3.80;3.0.3.80;04-30-2021;30/04/2021 09:16;11:16:02;3.0.3.82;2;;2;1;2;TESTVV;Generalbloc;;;;pretest;Chronos;61;5;VV_290421/910.png;8;1;61;10;blocVVstim;listVVTrial;;;;Chronos;0;;0;0;259071;200;;0;0;0;5;Chronos;0;0;259271;300;1;680;259951;0;5;Chronos;0;0;259571;0;1;380;259951;;;;;;;;;;;;;;;;;;;
EXP2.2_290421;10004;1;<ChronosDeviceInfo><FriendlyName>MyChronos</FriendlyName><DeviceIndex>1</DeviceIndex><SerialNumber>CHR-04301-1186</SerialNumber><EBNVersion>3.0.3.80</EBNVersion><FirmwareVersion>1.33</FirmwareVersion><APIVersion>1.33</APIVersion><USBHostControllerVersion>2.0</USBHostControllerVersion><USBConnectionRoute>USB#ROOT_HUB20#4&9bd2e8a&0#{f18a0e88-c30c-11d0-8815-00a0c906bed8} + USB#VID_8087&PID_0024#5&3026c139&0&1#{f18a0e88-c30c-11d0-8815-00a0c906bed8}(1) + VID_2266&PID_0007(7)</USBConnectionRoute></ChronosDeviceInfo>;"<?xml version=""1.0""?>\n<Clock xmlns:dt=""urn:schemas-microsoft-com:datatypes""><Description dt:dt=""string"">E-Prime Primary Realtime Clock</Description><StartTime><Timestamp dt:dt=""int"">0</Timestamp><DateUtc dt:dt=""string"">2021-04-30T09:16:02Z</DateUtc></StartTime><FrequencyChanges><FrequencyChange><Frequency dt:dt=""r8"">2435566</Frequency><Timestamp dt:dt=""r8"">18505308075</Timestamp><Current dt:dt=""r8"">0</Current><DateUtc dt:dt=""string"">2021-04-30T09:16:02Z</DateUtc></FrequencyChange></FrequencyChanges></Clock>\n";EXP2.2_290421-10004-1;60.024;1.0.0.340;1;Chronos;1325870774;Full;3.0.3.80;3.0.3.80;04-30-2021;30/04/2021 09:16;11:16:02;3.0.3.82;2;;2;1;2;TESTVV;Generalbloc;;;;pretest;Chronos;62;5;VV_290421/925.png;11;1;62;25;blocVVstim;listVVTrial;;;;Chronos;0;;0;0;261470;200;;0;0;1;5;Chronos;0;0;261670;300;5;609;262279;1;5;Chronos;0;0;261970;0;5;309;262279;;;;;;;;;;;;;;;;;;;
