ExperimentName;Subject;Session;Chronos.BoxInfo;Clock.Information;DataFile.Basename;Display.RefreshRate;ExperimentVersion;Group;Hello.DEVICE;RandomSeed;RuntimeCapabilities;RuntimeVersion;RuntimeVersionExpected;SessionDate;SessionStartDateTimeUtc;SessionTime;StudioVersion;Block;EndTraining.DEVICE;Generalbloc;Generalbloc.Cycle;Generalbloc.Sample;Procedure[Block];Running[Block];TextDisplay1.DEVICE;TextDisplay2.DEVICE;TextTraining.DEVICE;time;VVInst.DEVICE[Block];Trial;correct;image;listVVTrial;listVVTrial.Cycle;listVVTrial.Sample;offset;Procedure[Trial];Running[Trial];SpatialTaskTraining;SpatialTaskTraining.Cycle;SpatialTaskTraining.Sample;VVInst.DEVICE[Trial];vvstimnoresp.ACC;vvstimnoresp.CRESP;vvstimnoresp.DurationError;vvstimnoresp.OnsetDelay;vvstimnoresp.OnsetTime;vvstimnoresp.OnsetToOnsetTime;vvstimnoresp.RESP;vvstimnoresp.RT;vvstimnoresp.RTTime;vvstimresp1.ACC;vvstimresp1.CRESP;vvstimresp1.DEVICE;vvstimresp1.DurationError;vvstimresp1.OnsetDelay;vvstimresp1.OnsetTime;vvstimresp1.OnsetToOnsetTime;vvstimresp1.RESP;vvstimresp1.RT;vvstimresp1.RTTime;vvstimresp2.ACC;vvstimresp2.CRESP;vvstimresp2.DEVICE;vvstimresp2.DurationError;vvstimresp2.OnsetDelay;vvstimresp2.OnsetTime;vvstimresp2.OnsetToOnsetTime;vvstimresp2.RESP;vvstimresp2.RT;vvstimresp2.RTTime;SubTrial;LISTVVRANDOM1;LISTVVRANDOM1.Cycle;LISTVVRANDOM1.Sample;LISTVVRANDOM2;Procedure[SubTrial];Running[SubTrial];VVR;VVRANDOM;VVRANDOMRESP.ACC;VVRANDOMRESP.CRESP;VVRANDOMRESP.DEVICE;VVRANDOMRESP.DurationError;VVRANDOMRESP.OnsetDelay;VVRANDOMRESP.OnsetTime;VVRANDOMRESP.OnsetToOnsetTime;VVRANDOMRESP.RESP;VVRANDOMRESP.RT;VVRANDOMRESP.RTTime
EXP2.2_290421;1000005;1;<ChronosDeviceInfo><FriendlyName>MyChronos</FriendlyName><DeviceIndex>1</DeviceIndex><SerialNumber>CHR-04301-1186</SerialNumber><EBNVersion>3.0.3.80</EBNVersion><FirmwareVersion>1.33</FirmwareVersion><APIVersion>1.33</APIVersion><USBHostControllerVersion>2.0</USBHostControllerVersion><USBConnectionRoute>USB#ROOT_HUB20#4&9bd2e8a&0#{f18a0e88-c30c-11d0-8815-00a0c906bed8} + USB#VID_8087&PID_0024#5&3026c139&0&1#{f18a0e88-c30c-11d0-8815-00a0c906bed8}(1) + VID_2266&PID_0007(7)</USBConnectionRoute></ChronosDeviceInfo>;"<?xml version=""1.0""?>\n<Clock xmlns:dt=""urn:schemas-microsoft-com:datatypes""><Description dt:dt=""string"">E-Prime Primary Realtime Clock</Description><StartTime><Timestamp dt:dt=""int"">0</Timestamp><DateUtc dt:dt=""string"">2021-04-30T10:54:31Z</DateUtc></StartTime><FrequencyChanges><FrequencyChange><Frequency dt:dt=""r8"">2435566</Frequency><Timestamp dt:dt=""r8"">32896179815</Timestamp><Current dt:dt=""r8"">0</Current><DateUtc dt:dt=""string"">2021-04-30T10:54:31Z</DateUtc></FrequencyChange></FrequencyChanges></Clock>\n";EXP2.2_290421-1000005-1;60.024;1.0.0.341;1;Chronos;-1463275438;Full;3.0.3.80;3.0.3.80;04-30-2021;30/04/2021 10:54;12:54:31;3.0.3.82;1;Chronos;1;1;1;Training;Generalbloc;;;Chronos;pretest;;1;;;;;;;TRAININGVV;SpatialTaskTraining;1;1;1;Chronos;;;;;;;;;;;;;;;;;;;;;;;;;;;;;;1;1;1;1;1;blocVVstimTraining;LISTVVRANDOM1;VV_290421/875.png;VV_290421/880.png;0;;Chronos;-999999;0;790450;0;1;1177;791627
EXP2.2_290421;1000005;1;<ChronosDeviceInfo><FriendlyName>MyChronos</FriendlyName><DeviceIndex>1</DeviceIndex><SerialNumber>CHR-04301-1186</SerialNumber><EBNVersion>3.0.3.80</EBNVersion><FirmwareVersion>1.33</FirmwareVersion><APIVersion>1.33</APIVersion><USBHostControllerVersion>2.0</USBHostControllerVersion><USBConnectionRoute>USB#ROOT_HUB20#4&9bd2e8a&0#{f18a0e88-c30c-11d0-8815-00a0c906bed8} + USB#VID_8087&PID_0024#5&3026c139&0&1#{f18a0e88-c30c-11d0-8815-00a0c906bed8}(1) + VID_2266&PID_0007(7)</USBConnectionRoute></ChronosDeviceInfo>;"<?xml version=""1.0""?>\n<Clock xmlns:dt=""urn:schemas-microsoft-com:datatypes""><Description dt:dt=""string"">E-Prime Primary Realtime Clock</Description><StartTime><Timestamp dt:dt=""int"">0</Timestamp><DateUtc dt:dt=""string"">2021-04-30T10:54:31Z</DateUtc></StartTime><FrequencyChanges><FrequencyChange><Frequency dt:dt=""r8"">2435566</Frequency><Timestamp dt:dt=""r8"">32896179815</Timestamp><Current dt:dt=""r8"">0</Current><DateUtc dt:dt=""string"">2021-04-30T10:54:31Z</DateUtc></FrequencyChange></FrequencyChanges></Clock>\n";EXP2.2_290421-1000005-1;60.024;1.0.0.341;1;Chronos;-1463275438;Full;3.0.3.80;3.0.3.80;04-30-2021;30/04/2021 10:54;12:54:31;3.0.3.82;1;Chronos;1;1;1;Training;Generalbloc;;;Chronos;pretest;;1;;;;;;;TRAININGVV;SpatialTaskTraining;1;1;1;Chronos;;;;;;;;;;;;;;;;;;;;;;;;;;;;;;2;1;1;2;3;blocVVstimTraining;LISTVVRANDOM1;VV_290421/885.png;VV_290421/890.png;0;;Chronos;-999999;0;793649;0;1;1982;795631
EXP2.2_290421;1000005;1;<ChronosDeviceInfo><FriendlyName>MyChronos</FriendlyName><DeviceIndex>1</DeviceIndex><SerialNumber>CHR-04301-1186</SerialNumber><EBNVersion>3.0.3.80</EBNVersion><FirmwareVersion>1.33</FirmwareVersion><APIVersion>1.33</APIVersion><USBHostControllerVersion>2.0</USBHostControllerVersion><USBConnectionRoute>USB#ROOT_HUB20#4&9bd2e8a&0#{f18a0e88-c30c-11d0-8815-00a0c906bed8} + USB#VID_8087&PID_0024#5&3026c139&0&1#{f18a0e88-c30c-11d0-8815-00a0c906bed8}(1) + VID_2266&PID_0007(7)</USBConnectionRoute></ChronosDeviceInfo>;"<?xml version=""1.0""?>\n<Clock xmlns:dt=""urn:schemas-microsoft-com:datatypes""><Description dt:dt=""string"">E-Prime Primary Realtime Clock</Description><StartTime><Timestamp dt:dt=""int"">0</Timestamp><DateUtc dt:dt=""string"">2021-04-30T10:54:31Z</DateUtc></StartTime><FrequencyChanges><FrequencyChange><Frequency dt:dt=""r8"">2435566</Frequency><Timestamp dt:dt=""r8"">32896179815</Timestamp><Current dt:dt=""r8"">0</Current><DateUtc dt:dt=""string"">2021-04-30T10:54:31Z</DateUtc></FrequencyChange></FrequencyChanges></Clock>\n";EXP2.2_290421-1000005-1;60.024;1.0.0.341;1;Chronos;-1463275438;Full;3.0.3.80;3.0.3.80;04-30-2021;30/04/2021 10:54;12:54:31;3.0.3.82;1;Chronos;1;1;1;Training;Generalbloc;;;Chronos;pretest;;1;;;;;;;TRAININGVV;SpatialTaskTraining;1;1;1;Chronos;;;;;;;;;;;;;;;;;;;;;;;;;;;;;;3;1;1;3;5;blocVVstimTraining;LISTVVRANDOM1;VV_290421/895.png;VV_290421/900.png;0;;Chronos;-999999;-1;797647;0;1;1242;798889
EXP2.2_290421;1000005;1;<ChronosDeviceInfo><FriendlyName>MyChronos</FriendlyName><DeviceIndex>1</DeviceIndex><SerialNumber>CHR-04301-1186</SerialNumber><EBNVersion>3.0.3.80</EBNVersion><FirmwareVersion>1.33</FirmwareVersion><APIVersion>1.33</APIVersion><USBHostControllerVersion>2.0</USBHostControllerVersion><USBConnectionRoute>USB#ROOT_HUB20#4&9bd2e8a&0#{f18a0e88-c30c-11d0-8815-00a0c906bed8} + USB#VID_8087&PID_0024#5&3026c139&0&1#{f18a0e88-c30c-11d0-8815-00a0c906bed8}(1) + VID_2266&PID_0007(7)</USBConnectionRoute></ChronosDeviceInfo>;"<?xml version=""1.0""?>\n<Clock xmlns:dt=""urn:schemas-microsoft-com:datatypes""><Description dt:dt=""string"">E-Prime Primary Realtime Clock</Description><StartTime><Timestamp dt:dt=""int"">0</Timestamp><DateUtc dt:dt=""string"">2021-04-30T10:54:31Z</DateUtc></StartTime><FrequencyChanges><FrequencyChange><Frequency dt:dt=""r8"">2435566</Frequency><Timestamp dt:dt=""r8"">32896179815</Timestamp><Current dt:dt=""r8"">0</Current><DateUtc dt:dt=""string"">2021-04-30T10:54:31Z</DateUtc></FrequencyChange></FrequencyChanges></Clock>\n";EXP2.2_290421-1000005-1;60.024;1.0.0.341;1;Chronos;-1463275438;Full;3.0.3.80;3.0.3.80;04-30-2021;30/04/2021 10:54;12:54:31;3.0.3.82;1;Chronos;1;1;1;Training;Generalbloc;;;Chronos;pretest;;1;;;;;;;TRAININGVV;SpatialTaskTraining;1;1;1;Chronos;;;;;;;;;;;;;;;;;;;;;;;;;;;;;;4;1;1;4;7;blocVVstimTraining;LISTVVRANDOM1;VV_290421/905.png;VV_290421/910.png;0;;Chronos;-999999;0;800913;0;5;1191;802104
EXP2.2_290421;1000005;1;<ChronosDeviceInfo><FriendlyName>MyChronos</FriendlyName><DeviceIndex>1</DeviceIndex><SerialNumber>CHR-04301-1186</SerialNumber><EBNVersion>3.0.3.80</EBNVersion><FirmwareVersion>1.33</FirmwareVersion><APIVersion>1.33</APIVersion><USBHostControllerVersion>2.0</USBHostControllerVersion><USBConnectionRoute>USB#ROOT_HUB20#4&9bd2e8a&0#{f18a0e88-c30c-11d0-8815-00a0c906bed8} + USB#VID_8087&PID_0024#5&3026c139&0&1#{f18a0e88-c30c-11d0-8815-00a0c906bed8}(1) + VID_2266&PID_0007(7)</USBConnectionRoute></ChronosDeviceInfo>;"<?xml version=""1.0""?>\n<Clock xmlns:dt=""urn:schemas-microsoft-com:datatypes""><Description dt:dt=""string"">E-Prime Primary Realtime Clock</Description><StartTime><Timestamp dt:dt=""int"">0</Timestamp><DateUtc dt:dt=""string"">2021-04-30T10:54:31Z</DateUtc></StartTime><FrequencyChanges><FrequencyChange><Frequency dt:dt=""r8"">2435566</Frequency><Timestamp dt:dt=""r8"">32896179815</Timestamp><Current dt:dt=""r8"">0</Current><DateUtc dt:dt=""string"">2021-04-30T10:54:31Z</DateUtc></FrequencyChange></FrequencyChanges></Clock>\n";EXP2.2_290421-1000005-1;60.024;1.0.0.341;1;Chronos;-1463275438;Full;3.0.3.80;3.0.3.80;04-30-2021;30/04/2021 10:54;12:54:31;3.0.3.82;1;Chronos;1;1;1;Training;Generalbloc;;;Chronos;pretest;;1;;;;;;;TRAININGVV;SpatialTaskTraining;1;1;1;Chronos;;;;;;;;;;;;;;;;;;;;;;;;;;;;;;5;1;1;5;9;blocVVstimTraining;LISTVVRANDOM1;VV_290421/915.png;VV_290421/920.png;0;;Chronos;-999999;-1;804128;0;1;744;804872
EXP2.2_290421;1000005;1;<ChronosDeviceInfo><FriendlyName>MyChronos</FriendlyName><DeviceIndex>1</DeviceIndex><SerialNumber>CHR-04301-1186</SerialNumber><EBNVersion>3.0.3.80</EBNVersion><FirmwareVersion>1.33</FirmwareVersion><APIVersion>1.33</APIVersion><USBHostControllerVersion>2.0</USBHostControllerVersion><USBConnectionRoute>USB#ROOT_HUB20#4&9bd2e8a&0#{f18a0e88-c30c-11d0-8815-00a0c906bed8} + USB#VID_8087&PID_0024#5&3026c139&0&1#{f18a0e88-c30c-11d0-8815-00a0c906bed8}(1) + VID_2266&PID_0007(7)</USBConnectionRoute></ChronosDeviceInfo>;"<?xml version=""1.0""?>\n<Clock xmlns:dt=""urn:schemas-microsoft-com:datatypes""><Description dt:dt=""string"">E-Prime Primary Realtime Clock</Description><StartTime><Timestamp dt:dt=""int"">0</Timestamp><DateUtc dt:dt=""string"">2021-04-30T10:54:31Z</DateUtc></StartTime><FrequencyChanges><FrequencyChange><Frequency dt:dt=""r8"">2435566</Frequency><Timestamp dt:dt=""r8"">32896179815</Timestamp><Current dt:dt=""r8"">0</Current><DateUtc dt:dt=""string"">2021-04-30T10:54:31Z</DateUtc></FrequencyChange></FrequencyChanges></Clock>\n";EXP2.2_290421-1000005-1;60.024;1.0.0.341;1;Chronos;-1463275438;Full;3.0.3.80;3.0.3.80;04-30-2021;30/04/2021 10:54;12:54:31;3.0.3.82;1;Chronos;1;1;1;Training;Generalbloc;;;Chronos;pretest;;1;;;;;;;TRAININGVV;SpatialTaskTraining;1;1;1;Chronos;;;;;;;;;;;;;;;;;;;;;;;;;;;;;;6;1;1;6;11;blocVVstimTraining;LISTVVRANDOM1;VV_290421/925.png;VV_290421/875.png;0;;Chronos;-999999;0;806894;0;5;1311;808205
EXP2.2_290421;1000005;1;<ChronosDeviceInfo><FriendlyName>MyChronos</FriendlyName><DeviceIndex>1</DeviceIndex><SerialNumber>CHR-04301-1186</SerialNumber><EBNVersion>3.0.3.80</EBNVersion><FirmwareVersion>1.33</FirmwareVersion><APIVersion>1.33</APIVersion><USBHostControllerVersion>2.0</USBHostControllerVersion><USBConnectionRoute>USB#ROOT_HUB20#4&9bd2e8a&0#{f18a0e88-c30c-11d0-8815-00a0c906bed8} + USB#VID_8087&PID_0024#5&3026c139&0&1#{f18a0e88-c30c-11d0-8815-00a0c906bed8}(1) + VID_2266&PID_0007(7)</USBConnectionRoute></ChronosDeviceInfo>;"<?xml version=""1.0""?>\n<Clock xmlns:dt=""urn:schemas-microsoft-com:datatypes""><Description dt:dt=""string"">E-Prime Primary Realtime Clock</Description><StartTime><Timestamp dt:dt=""int"">0</Timestamp><DateUtc dt:dt=""string"">2021-04-30T10:54:31Z</DateUtc></StartTime><FrequencyChanges><FrequencyChange><Frequency dt:dt=""r8"">2435566</Frequency><Timestamp dt:dt=""r8"">32896179815</Timestamp><Current dt:dt=""r8"">0</Current><DateUtc dt:dt=""string"">2021-04-30T10:54:31Z</DateUtc></FrequencyChange></FrequencyChanges></Clock>\n";EXP2.2_290421-1000005-1;60.024;1.0.0.341;1;Chronos;-1463275438;Full;3.0.3.80;3.0.3.80;04-30-2021;30/04/2021 10:54;12:54:31;3.0.3.82;2;;2;1;2;TESTVV;Generalbloc;;;;pretest;Chronos;1;5;VV_290421/920.png;10;1;1;20;blocVVstim;listVVTrial;;;;Chronos;0;;1;-1;879632;200;;0;0;1;5;Chronos;1;0;879832;300;5;663;880495;1;5;Chronos;0;0;880132;0;5;363;880495;;;;;;;;;;;;;;;;;;;
EXP2.2_290421;1000005;1;<ChronosDeviceInfo><FriendlyName>MyChronos</FriendlyName><DeviceIndex>1</DeviceIndex><SerialNumber>CHR-04301-1186</SerialNumber><EBNVersion>3.0.3.80</EBNVersion><FirmwareVersion>1.33</FirmwareVersion><APIVersion>1.33</APIVersion><USBHostControllerVersion>2.0</USBHostControllerVersion><USBConnectionRoute>USB#ROOT_HUB20#4&9bd2e8a&0#{f18a0e88-c30c-11d0-8815-00a0c906bed8} + USB#VID_8087&PID_0024#5&3026c139&0&1#{f18a0e88-c30c-11d0-8815-00a0c906bed8}(1) + VID_2266&PID_0007(7)</USBConnectionRoute></ChronosDeviceInfo>;"<?xml version=""1.0""?>\n<Clock xmlns:dt=""urn:schemas-microsoft-com:datatypes""><Description dt:dt=""string"">E-Prime Primary Realtime Clock</Description><StartTime><Timestamp dt:dt=""int"">0</Timestamp><DateUtc dt:dt=""string"">2021-04-30T10:54:31Z</DateUtc></StartTime><FrequencyChanges><FrequencyChange><Frequency dt:dt=""r8"">2435566</Frequency><Timestamp dt:dt=""r8"">32896179815</Timestamp><Current dt:dt=""r8"">0</Current><DateUtc dt:dt=""string"">2021-04-30T10:54:31Z</DateUtc></FrequencyChange></FrequencyChanges></Clock>\n";EXP2.2_290421-1000005-1;60.024;1.0.0.341;1;Chronos;-1463275438;Full;3.0.3.80;3.0.3.80;04-30-2021;30/04/2021 10:54;12:54:31;3.0.3.82;2;;2;1;2;TESTVV;Generalbloc;;;;pretest;Chronos;2;5;VV_290421/905.png;7;1;2;5;blocVVstim;listVVTrial;;;;Chronos;0;;0;0;882015;200;;0;0;1;5;Chronos;0;0;882215;300;5;716;882931;1;5;Chronos;0;0;882515;0;5;416;882931;;;;;;;;;;;;;;;;;;;
EXP2.2_290421;1000005;1;<ChronosDeviceInfo><FriendlyName>MyChronos</FriendlyName><DeviceIndex>1</DeviceIndex><SerialNumber>CHR-04301-1186</SerialNumber><EBNVersion>3.0.3.80</EBNVersion><FirmwareVersion>1.33</FirmwareVersion><APIVersion>1.33</APIVersion><USBHostControllerVersion>2.0</USBHostControllerVersion><USBConnectionRoute>USB#ROOT_HUB20#4&9bd2e8a&0#{f18a0e88-c30c-11d0-8815-00a0c906bed8} + USB#VID_8087&PID_0024#5&3026c139&0&1#{f18a0e88-c30c-11d0-8815-00a0c906bed8}(1) + VID_2266&PID_0007(7)</USBConnectionRoute></ChronosDeviceInfo>;"<?xml version=""1.0""?>\n<Clock xmlns:dt=""urn:schemas-microsoft-com:datatypes""><Description dt:dt=""string"">E-Prime Primary Realtime Clock</Description><StartTime><Timestamp dt:dt=""int"">0</Timestamp><DateUtc dt:dt=""string"">2021-04-30T10:54:31Z</DateUtc></StartTime><FrequencyChanges><FrequencyChange><Frequency dt:dt=""r8"">2435566</Frequency><Timestamp dt:dt=""r8"">32896179815</Timestamp><Current dt:dt=""r8"">0</Current><DateUtc dt:dt=""string"">2021-04-30T10:54:31Z</DateUtc></FrequencyChange></FrequencyChanges></Clock>\n";EXP2.2_290421-1000005-1;60.024;1.0.0.341;1;Chronos;-1463275438;Full;3.0.3.80;3.0.3.80;04-30-2021;30/04/2021 10:54;12:54:31;3.0.3.82;2;;2;1;2;TESTVV;Generalbloc;;;;pretest;Chronos;3;5;VV_290421/925.png;11;1;3;25;blocVVstim;listVVTrial;;;;Chronos;0;;0;-1;884447;200;;0;0;1;5;Chronos;0;0;884647;300;5;587;885234;1;5;Chronos;0;0;884947;0;5;287;885234;;;;;;;;;;;;;;;;;;;
EXP2.2_290421;1000005;1;<ChronosDeviceInfo><FriendlyName>MyChronos</FriendlyName><DeviceIndex>1</DeviceIndex><SerialNumber>CHR-04301-1186</SerialNumber><EBNVersion>3.0.3.80</EBNVersion><FirmwareVersion>1.33</FirmwareVersion><APIVersion>1.33</APIVersion><USBHostControllerVersion>2.0</USBHostControllerVersion><USBConnectionRoute>USB#ROOT_HUB20#4&9bd2e8a&0#{f18a0e88-c30c-11d0-8815-00a0c906bed8} + USB#VID_8087&PID_0024#5&3026c139&0&1#{f18a0e88-c30c-11d0-8815-00a0c906bed8}(1) + VID_2266&PID_0007(7)</USBConnectionRoute></ChronosDeviceInfo>;"<?xml version=""1.0""?>\n<Clock xmlns:dt=""urn:schemas-microsoft-com:datatypes""><Description dt:dt=""string"">E-Prime Primary Realtime Clock</Description><StartTime><Timestamp dt:dt=""int"">0</Timestamp><DateUtc dt:dt=""string"">2021-04-30T10:54:31Z</DateUtc></StartTime><FrequencyChanges><FrequencyChange><Frequency dt:dt=""r8"">2435566</Frequency><Timestamp dt:dt=""r8"">32896179815</Timestamp><Current dt:dt=""r8"">0</Current><DateUtc dt:dt=""string"">2021-04-30T10:54:31Z</DateUtc></FrequencyChange></FrequencyChanges></Clock>\n";EXP2.2_290421-1000005-1;60.024;1.0.0.341;1;Chronos;-1463275438;Full;3.0.3.80;3.0.3.80;04-30-2021;30/04/2021 10:54;12:54:31;3.0.3.82;2;;2;1;2;TESTVV;Generalbloc;;;;pretest;Chronos;4;1;VV_290421/875.png;1;1;4;-25;blocVVstim;listVVTrial;;;;Chronos;0;;1;-1;886746;200;;0;0;1;1;Chronos;0;0;886946;300;1;393;887339;1;1;Chronos;0;0;887246;0;1;93;887339;;;;;;;;;;;;;;;;;;;
EXP2.2_290421;1000005;1;<ChronosDeviceInfo><FriendlyName>MyChronos</FriendlyName><DeviceIndex>1</DeviceIndex><SerialNumber>CHR-04301-1186</SerialNumber><EBNVersion>3.0.3.80</EBNVersion><FirmwareVersion>1.33</FirmwareVersion><APIVersion>1.33</APIVersion><USBHostControllerVersion>2.0</USBHostControllerVersion><USBConnectionRoute>USB#ROOT_HUB20#4&9bd2e8a&0#{f18a0e88-c30c-11d0-8815-00a0c906bed8} + USB#VID_8087&PID_0024#5&3026c139&0&1#{f18a0e88-c30c-11d0-8815-00a0c906bed8}(1) + VID_2266&PID_0007(7)</USBConnectionRoute></ChronosDeviceInfo>;"<?xml version=""1.0""?>\n<Clock xmlns:dt=""urn:schemas-microsoft-com:datatypes""><Description dt:dt=""string"">E-Prime Primary Realtime Clock</Description><StartTime><Timestamp dt:dt=""int"">0</Timestamp><DateUtc dt:dt=""string"">2021-04-30T10:54:31Z</DateUtc></StartTime><FrequencyChanges><FrequencyChange><Frequency dt:dt=""r8"">2435566</Frequency><Timestamp dt:dt=""r8"">32896179815</Timestamp><Current dt:dt=""r8"">0</Current><DateUtc dt:dt=""string"">2021-04-30T10:54:31Z</DateUtc></FrequencyChange></FrequencyChanges></Clock>\n";EXP2.2_290421-1000005-1;60.024;1.0.0.341;1;Chronos;-1463275438;Full;3.0.3.80;3.0.3.80;04-30-2021;30/04/2021 10:54;12:54:31;3.0.3.82;2;;2;1;2;TESTVV;Generalbloc;;;;pretest;Chronos;5;5;VV_290421/915.png;9;1;5;15;blocVVstim;listVVTrial;;;;Chronos;0;;0;-1;888862;200;;0;0;1;5;Chronos;0;0;889062;300;5;433;889495;1;5;Chronos;0;0;889362;0;5;133;889495;;;;;;;;;;;;;;;;;;;
EXP2.2_290421;1000005;1;<ChronosDeviceInfo><FriendlyName>MyChronos</FriendlyName><DeviceIndex>1</DeviceIndex><SerialNumber>CHR-04301-1186</SerialNumber><EBNVersion>3.0.3.80</EBNVersion><FirmwareVersion>1.33</FirmwareVersion><APIVersion>1.33</APIVersion><USBHostControllerVersion>2.0</USBHostControllerVersion><USBConnectionRoute>USB#ROOT_HUB20#4&9bd2e8a&0#{f18a0e88-c30c-11d0-8815-00a0c906bed8} + USB#VID_8087&PID_0024#5&3026c139&0&1#{f18a0e88-c30c-11d0-8815-00a0c906bed8}(1) + VID_2266&PID_0007(7)</USBConnectionRoute></ChronosDeviceInfo>;"<?xml version=""1.0""?>\n<Clock xmlns:dt=""urn:schemas-microsoft-com:datatypes""><Description dt:dt=""string"">E-Prime Primary Realtime Clock</Description><StartTime><Timestamp dt:dt=""int"">0</Timestamp><DateUtc dt:dt=""string"">2021-04-30T10:54:31Z</DateUtc></StartTime><FrequencyChanges><FrequencyChange><Frequency dt:dt=""r8"">2435566</Frequency><Timestamp dt:dt=""r8"">32896179815</Timestamp><Current dt:dt=""r8"">0</Current><DateUtc dt:dt=""string"">2021-04-30T10:54:31Z</DateUtc></FrequencyChange></FrequencyChanges></Clock>\n";EXP2.2_290421-1000005-1;60.024;1.0.0.341;1;Chronos;-1463275438;Full;3.0.3.80;3.0.3.80;04-30-2021;30/04/2021 10:54;12:54:31;3.0.3.82;2;;2;1;2;TESTVV;Generalbloc;;;;pretest;Chronos;6;5;VV_290421/910.png;8;1;6;10;blocVVstim;listVVTrial;;;;Chronos;0;;1;-1;891011;200;;0;0;1;5;Chronos;1;0;891211;300;5;462;891673;1;5;Chronos;0;0;891511;0;5;162;891673;;;;;;;;;;;;;;;;;;;
EXP2.2_290421;1000005;1;<ChronosDeviceInfo><FriendlyName>MyChronos</FriendlyName><DeviceIndex>1</DeviceIndex><SerialNumber>CHR-04301-1186</SerialNumber><EBNVersion>3.0.3.80</EBNVersion><FirmwareVersion>1.33</FirmwareVersion><APIVersion>1.33</APIVersion><USBHostControllerVersion>2.0</USBHostControllerVersion><USBConnectionRoute>USB#ROOT_HUB20#4&9bd2e8a&0#{f18a0e88-c30c-11d0-8815-00a0c906bed8} + USB#VID_8087&PID_0024#5&3026c139&0&1#{f18a0e88-c30c-11d0-8815-00a0c906bed8}(1) + VID_2266&PID_0007(7)</USBConnectionRoute></ChronosDeviceInfo>;"<?xml version=""1.0""?>\n<Clock xmlns:dt=""urn:schemas-microsoft-com:datatypes""><Description dt:dt=""string"">E-Prime Primary Realtime Clock</Description><StartTime><Timestamp dt:dt=""int"">0</Timestamp><DateUtc dt:dt=""string"">2021-04-30T10:54:31Z</DateUtc></StartTime><FrequencyChanges><FrequencyChange><Frequency dt:dt=""r8"">2435566</Frequency><Timestamp dt:dt=""r8"">32896179815</Timestamp><Current dt:dt=""r8"">0</Current><DateUtc dt:dt=""string"">2021-04-30T10:54:31Z</DateUtc></FrequencyChange></FrequencyChanges></Clock>\n";EXP2.2_290421-1000005-1;60.024;1.0.0.341;1;Chronos;-1463275438;Full;3.0.3.80;3.0.3.80;04-30-2021;30/04/2021 10:54;12:54:31;3.0.3.82;2;;2;1;2;TESTVV;Generalbloc;;;;pretest;Chronos;7;1;VV_290421/880.png;2;1;7;-20;blocVVstim;listVVTrial;;;;Chronos;0;;0;-1;893194;200;;0;0;1;1;Chronos;0;0;893394;300;1;444;893838;1;1;Chronos;0;0;893694;0;1;144;893838;;;;;;;;;;;;;;;;;;;
EXP2.2_290421;1000005;1;<ChronosDeviceInfo><FriendlyName>MyChronos</FriendlyName><DeviceIndex>1</DeviceIndex><SerialNumber>CHR-04301-1186</SerialNumber><EBNVersion>3.0.3.80</EBNVersion><FirmwareVersion>1.33</FirmwareVersion><APIVersion>1.33</APIVersion><USBHostControllerVersion>2.0</USBHostControllerVersion><USBConnectionRoute>USB#ROOT_HUB20#4&9bd2e8a&0#{f18a0e88-c30c-11d0-8815-00a0c906bed8} + USB#VID_8087&PID_0024#5&3026c139&0&1#{f18a0e88-c30c-11d0-8815-00a0c906bed8}(1) + VID_2266&PID_0007(7)</USBConnectionRoute></ChronosDeviceInfo>;"<?xml version=""1.0""?>\n<Clock xmlns:dt=""urn:schemas-microsoft-com:datatypes""><Description dt:dt=""string"">E-Prime Primary Realtime Clock</Description><StartTime><Timestamp dt:dt=""int"">0</Timestamp><DateUtc dt:dt=""string"">2021-04-30T10:54:31Z</DateUtc></StartTime><FrequencyChanges><FrequencyChange><Frequency dt:dt=""r8"">2435566</Frequency><Timestamp dt:dt=""r8"">32896179815</Timestamp><Current dt:dt=""r8"">0</Current><DateUtc dt:dt=""string"">2021-04-30T10:54:31Z</DateUtc></FrequencyChange></FrequencyChanges></Clock>\n";EXP2.2_290421-1000005-1;60.024;1.0.0.341;1;Chronos;-1463275438;Full;3.0.3.80;3.0.3.80;04-30-2021;30/04/2021 10:54;12:54:31;3.0.3.82;2;;2;1;2;TESTVV;Generalbloc;;;;pretest;Chronos;8;5;VV_290421/920.png;10;1;8;20;blocVVstim;listVVTrial;;;;Chronos;0;;0;0;895360;200;;0;0;1;5;Chronos;0;0;895560;300;5;369;895929;1;5;Chronos;0;0;895860;0;5;69;895929;;;;;;;;;;;;;;;;;;;
EXP2.2_290421;1000005;1;<ChronosDeviceInfo><FriendlyName>MyChronos</FriendlyName><DeviceIndex>1</DeviceIndex><SerialNumber>CHR-04301-1186</SerialNumber><EBNVersion>3.0.3.80</EBNVersion><FirmwareVersion>1.33</FirmwareVersion><APIVersion>1.33</APIVersion><USBHostControllerVersion>2.0</USBHostControllerVersion><USBConnectionRoute>USB#ROOT_HUB20#4&9bd2e8a&0#{f18a0e88-c30c-11d0-8815-00a0c906bed8} + USB#VID_8087&PID_0024#5&3026c139&0&1#{f18a0e88-c30c-11d0-8815-00a0c906bed8}(1) + VID_2266&PID_0007(7)</USBConnectionRoute></ChronosDeviceInfo>;"<?xml version=""1.0""?>\n<Clock xmlns:dt=""urn:schemas-microsoft-com:datatypes""><Description dt:dt=""string"">E-Prime Primary Realtime Clock</Description><StartTime><Timestamp dt:dt=""int"">0</Timestamp><DateUtc dt:dt=""string"">2021-04-30T10:54:31Z</DateUtc></StartTime><FrequencyChanges><FrequencyChange><Frequency dt:dt=""r8"">2435566</Frequency><Timestamp dt:dt=""r8"">32896179815</Timestamp><Current dt:dt=""r8"">0</Current><DateUtc dt:dt=""string"">2021-04-30T10:54:31Z</DateUtc></FrequencyChange></FrequencyChanges></Clock>\n";EXP2.2_290421-1000005-1;60.024;1.0.0.341;1;Chronos;-1463275438;Full;3.0.3.80;3.0.3.80;04-30-2021;30/04/2021 10:54;12:54:31;3.0.3.82;2;;2;1;2;TESTVV;Generalbloc;;;;pretest;Chronos;9;5;VV_290421/910.png;8;1;9;10;blocVVstim;listVVTrial;;;;Chronos;0;;0;-1;897442;200;;0;0;1;5;Chronos;0;0;897642;300;5;522;898164;1;5;Chronos;0;0;897942;0;5;222;898164;;;;;;;;;;;;;;;;;;;
EXP2.2_290421;1000005;1;<ChronosDeviceInfo><FriendlyName>MyChronos</FriendlyName><DeviceIndex>1</DeviceIndex><SerialNumber>CHR-04301-1186</SerialNumber><EBNVersion>3.0.3.80</EBNVersion><FirmwareVersion>1.33</FirmwareVersion><APIVersion>1.33</APIVersion><USBHostControllerVersion>2.0</USBHostControllerVersion><USBConnectionRoute>USB#ROOT_HUB20#4&9bd2e8a&0#{f18a0e88-c30c-11d0-8815-00a0c906bed8} + USB#VID_8087&PID_0024#5&3026c139&0&1#{f18a0e88-c30c-11d0-8815-00a0c906bed8}(1) + VID_2266&PID_0007(7)</USBConnectionRoute></ChronosDeviceInfo>;"<?xml version=""1.0""?>\n<Clock xmlns:dt=""urn:schemas-microsoft-com:datatypes""><Description dt:dt=""string"">E-Prime Primary Realtime Clock</Description><StartTime><Timestamp dt:dt=""int"">0</Timestamp><DateUtc dt:dt=""string"">2021-04-30T10:54:31Z</DateUtc></StartTime><FrequencyChanges><FrequencyChange><Frequency dt:dt=""r8"">2435566</Frequency><Timestamp dt:dt=""r8"">32896179815</Timestamp><Current dt:dt=""r8"">0</Current><DateUtc dt:dt=""string"">2021-04-30T10:54:31Z</DateUtc></FrequencyChange></FrequencyChanges></Clock>\n";EXP2.2_290421-1000005-1;60.024;1.0.0.341;1;Chronos;-1463275438;Full;3.0.3.80;3.0.3.80;04-30-2021;30/04/2021 10:54;12:54:31;3.0.3.82;2;;2;1;2;TESTVV;Generalbloc;;;;pretest;Chronos;10;5;VV_290421/905.png;7;1;10;5;blocVVstim;listVVTrial;;;;Chronos;0;;1;-1;899691;200;;0;0;1;5;Chronos;1;0;899891;300;5;375;900266;1;5;Chronos;0;0;900191;0;5;75;900266;;;;;;;;;;;;;;;;;;;
EXP2.2_290421;1000005;1;<ChronosDeviceInfo><FriendlyName>MyChronos</FriendlyName><DeviceIndex>1</DeviceIndex><SerialNumber>CHR-04301-1186</SerialNumber><EBNVersion>3.0.3.80</EBNVersion><FirmwareVersion>1.33</FirmwareVersion><APIVersion>1.33</APIVersion><USBHostControllerVersion>2.0</USBHostControllerVersion><USBConnectionRoute>USB#ROOT_HUB20#4&9bd2e8a&0#{f18a0e88-c30c-11d0-8815-00a0c906bed8} + USB#VID_8087&PID_0024#5&3026c139&0&1#{f18a0e88-c30c-11d0-8815-00a0c906bed8}(1) + VID_2266&PID_0007(7)</USBConnectionRoute></ChronosDeviceInfo>;"<?xml version=""1.0""?>\n<Clock xmlns:dt=""urn:schemas-microsoft-com:datatypes""><Description dt:dt=""string"">E-Prime Primary Realtime Clock</Description><StartTime><Timestamp dt:dt=""int"">0</Timestamp><DateUtc dt:dt=""string"">2021-04-30T10:54:31Z</DateUtc></StartTime><FrequencyChanges><FrequencyChange><Frequency dt:dt=""r8"">2435566</Frequency><Timestamp dt:dt=""r8"">32896179815</Timestamp><Current dt:dt=""r8"">0</Current><DateUtc dt:dt=""string"">2021-04-30T10:54:31Z</DateUtc></FrequencyChange></FrequencyChanges></Clock>\n";EXP2.2_290421-1000005-1;60.024;1.0.0.341;1;Chronos;-1463275438;Full;3.0.3.80;3.0.3.80;04-30-2021;30/04/2021 10:54;12:54:31;3.0.3.82;2;;2;1;2;TESTVV;Generalbloc;;;;pretest;Chronos;11;5;VV_290421/925.png;11;1;11;25;blocVVstim;listVVTrial;;;;Chronos;0;;0;0;901791;200;;0;0;1;5;Chronos;0;0;901991;0;5;264;902255;0;;;-999999;0;0;0;;0;0;;;;;;;;;;;;;;;;;;;
EXP2.2_290421;1000005;1;<ChronosDeviceInfo><FriendlyName>MyChronos</FriendlyName><DeviceIndex>1</DeviceIndex><SerialNumber>CHR-04301-1186</SerialNumber><EBNVersion>3.0.3.80</EBNVersion><FirmwareVersion>1.33</FirmwareVersion><APIVersion>1.33</APIVersion><USBHostControllerVersion>2.0</USBHostControllerVersion><USBConnectionRoute>USB#ROOT_HUB20#4&9bd2e8a&0#{f18a0e88-c30c-11d0-8815-00a0c906bed8} + USB#VID_8087&PID_0024#5&3026c139&0&1#{f18a0e88-c30c-11d0-8815-00a0c906bed8}(1) + VID_2266&PID_0007(7)</USBConnectionRoute></ChronosDeviceInfo>;"<?xml version=""1.0""?>\n<Clock xmlns:dt=""urn:schemas-microsoft-com:datatypes""><Description dt:dt=""string"">E-Prime Primary Realtime Clock</Description><StartTime><Timestamp dt:dt=""int"">0</Timestamp><DateUtc dt:dt=""string"">2021-04-30T10:54:31Z</DateUtc></StartTime><FrequencyChanges><FrequencyChange><Frequency dt:dt=""r8"">2435566</Frequency><Timestamp dt:dt=""r8"">32896179815</Timestamp><Current dt:dt=""r8"">0</Current><DateUtc dt:dt=""string"">2021-04-30T10:54:31Z</DateUtc></FrequencyChange></FrequencyChanges></Clock>\n";EXP2.2_290421-1000005-1;60.024;1.0.0.341;1;Chronos;-1463275438;Full;3.0.3.80;3.0.3.80;04-30-2021;30/04/2021 10:54;12:54:31;3.0.3.82;2;;2;1;2;TESTVV;Generalbloc;;;;pretest;Chronos;12;1;VV_290421/885.png;3;1;12;-15;blocVVstim;listVVTrial;;;;Chronos;0;;0;0;903840;200;;0;0;1;1;Chronos;0;0;904040;300;1;532;904572;1;1;Chronos;0;0;904340;0;1;232;904572;;;;;;;;;;;;;;;;;;;
EXP2.2_290421;1000005;1;<ChronosDeviceInfo><FriendlyName>MyChronos</FriendlyName><DeviceIndex>1</DeviceIndex><SerialNumber>CHR-04301-1186</SerialNumber><EBNVersion>3.0.3.80</EBNVersion><FirmwareVersion>1.33</FirmwareVersion><APIVersion>1.33</APIVersion><USBHostControllerVersion>2.0</USBHostControllerVersion><USBConnectionRoute>USB#ROOT_HUB20#4&9bd2e8a&0#{f18a0e88-c30c-11d0-8815-00a0c906bed8} + USB#VID_8087&PID_0024#5&3026c139&0&1#{f18a0e88-c30c-11d0-8815-00a0c906bed8}(1) + VID_2266&PID_0007(7)</USBConnectionRoute></ChronosDeviceInfo>;"<?xml version=""1.0""?>\n<Clock xmlns:dt=""urn:schemas-microsoft-com:datatypes""><Description dt:dt=""string"">E-Prime Primary Realtime Clock</Description><StartTime><Timestamp dt:dt=""int"">0</Timestamp><DateUtc dt:dt=""string"">2021-04-30T10:54:31Z</DateUtc></StartTime><FrequencyChanges><FrequencyChange><Frequency dt:dt=""r8"">2435566</Frequency><Timestamp dt:dt=""r8"">32896179815</Timestamp><Current dt:dt=""r8"">0</Current><DateUtc dt:dt=""string"">2021-04-30T10:54:31Z</DateUtc></FrequencyChange></FrequencyChanges></Clock>\n";EXP2.2_290421-1000005-1;60.024;1.0.0.341;1;Chronos;-1463275438;Full;3.0.3.80;3.0.3.80;04-30-2021;30/04/2021 10:54;12:54:31;3.0.3.82;2;;2;1;2;TESTVV;Generalbloc;;;;pretest;Chronos;13;1;VV_290421/875.png;1;1;13;-25;blocVVstim;listVVTrial;;;;Chronos;0;;0;-1;906139;200;;0;0;1;1;Chronos;0;0;906339;300;1;650;906989;1;1;Chronos;0;0;906639;0;1;350;906989;;;;;;;;;;;;;;;;;;;
EXP2.2_290421;1000005;1;<ChronosDeviceInfo><FriendlyName>MyChronos</FriendlyName><DeviceIndex>1</DeviceIndex><SerialNumber>CHR-04301-1186</SerialNumber><EBNVersion>3.0.3.80</EBNVersion><FirmwareVersion>1.33</FirmwareVersion><APIVersion>1.33</APIVersion><USBHostControllerVersion>2.0</USBHostControllerVersion><USBConnectionRoute>USB#ROOT_HUB20#4&9bd2e8a&0#{f18a0e88-c30c-11d0-8815-00a0c906bed8} + USB#VID_8087&PID_0024#5&3026c139&0&1#{f18a0e88-c30c-11d0-8815-00a0c906bed8}(1) + VID_2266&PID_0007(7)</USBConnectionRoute></ChronosDeviceInfo>;"<?xml version=""1.0""?>\n<Clock xmlns:dt=""urn:schemas-microsoft-com:datatypes""><Description dt:dt=""string"">E-Prime Primary Realtime Clock</Description><StartTime><Timestamp dt:dt=""int"">0</Timestamp><DateUtc dt:dt=""string"">2021-04-30T10:54:31Z</DateUtc></StartTime><FrequencyChanges><FrequencyChange><Frequency dt:dt=""r8"">2435566</Frequency><Timestamp dt:dt=""r8"">32896179815</Timestamp><Current dt:dt=""r8"">0</Current><DateUtc dt:dt=""string"">2021-04-30T10:54:31Z</DateUtc></FrequencyChange></FrequencyChanges></Clock>\n";EXP2.2_290421-1000005-1;60.024;1.0.0.341;1;Chronos;-1463275438;Full;3.0.3.80;3.0.3.80;04-30-2021;30/04/2021 10:54;12:54:31;3.0.3.82;2;;2;1;2;TESTVV;Generalbloc;;;;pretest;Chronos;14;1;VV_290421/880.png;2;1;14;-20;blocVVstim;listVVTrial;;;;Chronos;0;;0;0;908505;200;;0;0;1;1;Chronos;0;0;908705;300;1;484;909189;1;1;Chronos;0;0;909005;0;1;184;909189;;;;;;;;;;;;;;;;;;;
EXP2.2_290421;1000005;1;<ChronosDeviceInfo><FriendlyName>MyChronos</FriendlyName><DeviceIndex>1</DeviceIndex><SerialNumber>CHR-04301-1186</SerialNumber><EBNVersion>3.0.3.80</EBNVersion><FirmwareVersion>1.33</FirmwareVersion><APIVersion>1.33</APIVersion><USBHostControllerVersion>2.0</USBHostControllerVersion><USBConnectionRoute>USB#ROOT_HUB20#4&9bd2e8a&0#{f18a0e88-c30c-11d0-8815-00a0c906bed8} + USB#VID_8087&PID_0024#5&3026c139&0&1#{f18a0e88-c30c-11d0-8815-00a0c906bed8}(1) + VID_2266&PID_0007(7)</USBConnectionRoute></ChronosDeviceInfo>;"<?xml version=""1.0""?>\n<Clock xmlns:dt=""urn:schemas-microsoft-com:datatypes""><Description dt:dt=""string"">E-Prime Primary Realtime Clock</Description><StartTime><Timestamp dt:dt=""int"">0</Timestamp><DateUtc dt:dt=""string"">2021-04-30T10:54:31Z</DateUtc></StartTime><FrequencyChanges><FrequencyChange><Frequency dt:dt=""r8"">2435566</Frequency><Timestamp dt:dt=""r8"">32896179815</Timestamp><Current dt:dt=""r8"">0</Current><DateUtc dt:dt=""string"">2021-04-30T10:54:31Z</DateUtc></FrequencyChange></FrequencyChanges></Clock>\n";EXP2.2_290421-1000005-1;60.024;1.0.0.341;1;Chronos;-1463275438;Full;3.0.3.80;3.0.3.80;04-30-2021;30/04/2021 10:54;12:54:31;3.0.3.82;2;;2;1;2;TESTVV;Generalbloc;;;;pretest;Chronos;15;1;VV_290421/880.png;2;1;15;-20;blocVVstim;listVVTrial;;;;Chronos;0;;0;0;910704;200;;0;0;1;1;Chronos;0;0;910904;300;1;576;911480;1;1;Chronos;0;0;911204;0;1;276;911480;;;;;;;;;;;;;;;;;;;
EXP2.2_290421;1000005;1;<ChronosDeviceInfo><FriendlyName>MyChronos</FriendlyName><DeviceIndex>1</DeviceIndex><SerialNumber>CHR-04301-1186</SerialNumber><EBNVersion>3.0.3.80</EBNVersion><FirmwareVersion>1.33</FirmwareVersion><APIVersion>1.33</APIVersion><USBHostControllerVersion>2.0</USBHostControllerVersion><USBConnectionRoute>USB#ROOT_HUB20#4&9bd2e8a&0#{f18a0e88-c30c-11d0-8815-00a0c906bed8} + USB#VID_8087&PID_0024#5&3026c139&0&1#{f18a0e88-c30c-11d0-8815-00a0c906bed8}(1) + VID_2266&PID_0007(7)</USBConnectionRoute></ChronosDeviceInfo>;"<?xml version=""1.0""?>\n<Clock xmlns:dt=""urn:schemas-microsoft-com:datatypes""><Description dt:dt=""string"">E-Prime Primary Realtime Clock</Description><StartTime><Timestamp dt:dt=""int"">0</Timestamp><DateUtc dt:dt=""string"">2021-04-30T10:54:31Z</DateUtc></StartTime><FrequencyChanges><FrequencyChange><Frequency dt:dt=""r8"">2435566</Frequency><Timestamp dt:dt=""r8"">32896179815</Timestamp><Current dt:dt=""r8"">0</Current><DateUtc dt:dt=""string"">2021-04-30T10:54:31Z</DateUtc></FrequencyChange></FrequencyChanges></Clock>\n";EXP2.2_290421-1000005-1;60.024;1.0.0.341;1;Chronos;-1463275438;Full;3.0.3.80;3.0.3.80;04-30-2021;30/04/2021 10:54;12:54:31;3.0.3.82;2;;2;1;2;TESTVV;Generalbloc;;;;pretest;Chronos;16;1;VV_290421/890.png;4;1;16;-10;blocVVstim;listVVTrial;;;;Chronos;0;;0;-1;913003;200;;0;0;1;1;Chronos;0;0;913203;300;1;447;913650;1;1;Chronos;0;0;913503;0;1;147;913650;;;;;;;;;;;;;;;;;;;
EXP2.2_290421;1000005;1;<ChronosDeviceInfo><FriendlyName>MyChronos</FriendlyName><DeviceIndex>1</DeviceIndex><SerialNumber>CHR-04301-1186</SerialNumber><EBNVersion>3.0.3.80</EBNVersion><FirmwareVersion>1.33</FirmwareVersion><APIVersion>1.33</APIVersion><USBHostControllerVersion>2.0</USBHostControllerVersion><USBConnectionRoute>USB#ROOT_HUB20#4&9bd2e8a&0#{f18a0e88-c30c-11d0-8815-00a0c906bed8} + USB#VID_8087&PID_0024#5&3026c139&0&1#{f18a0e88-c30c-11d0-8815-00a0c906bed8}(1) + VID_2266&PID_0007(7)</USBConnectionRoute></ChronosDeviceInfo>;"<?xml version=""1.0""?>\n<Clock xmlns:dt=""urn:schemas-microsoft-com:datatypes""><Description dt:dt=""string"">E-Prime Primary Realtime Clock</Description><StartTime><Timestamp dt:dt=""int"">0</Timestamp><DateUtc dt:dt=""string"">2021-04-30T10:54:31Z</DateUtc></StartTime><FrequencyChanges><FrequencyChange><Frequency dt:dt=""r8"">2435566</Frequency><Timestamp dt:dt=""r8"">32896179815</Timestamp><Current dt:dt=""r8"">0</Current><DateUtc dt:dt=""string"">2021-04-30T10:54:31Z</DateUtc></FrequencyChange></FrequencyChanges></Clock>\n";EXP2.2_290421-1000005-1;60.024;1.0.0.341;1;Chronos;-1463275438;Full;3.0.3.80;3.0.3.80;04-30-2021;30/04/2021 10:54;12:54:31;3.0.3.82;2;;2;1;2;TESTVV;Generalbloc;;;;pretest;Chronos;17;5;VV_290421/925.png;11;1;17;25;blocVVstim;listVVTrial;;;;Chronos;0;;0;0;915169;200;;0;0;1;5;Chronos;0;0;915369;300;5;394;915763;1;5;Chronos;0;0;915669;0;5;94;915763;;;;;;;;;;;;;;;;;;;
EXP2.2_290421;1000005;1;<ChronosDeviceInfo><FriendlyName>MyChronos</FriendlyName><DeviceIndex>1</DeviceIndex><SerialNumber>CHR-04301-1186</SerialNumber><EBNVersion>3.0.3.80</EBNVersion><FirmwareVersion>1.33</FirmwareVersion><APIVersion>1.33</APIVersion><USBHostControllerVersion>2.0</USBHostControllerVersion><USBConnectionRoute>USB#ROOT_HUB20#4&9bd2e8a&0#{f18a0e88-c30c-11d0-8815-00a0c906bed8} + USB#VID_8087&PID_0024#5&3026c139&0&1#{f18a0e88-c30c-11d0-8815-00a0c906bed8}(1) + VID_2266&PID_0007(7)</USBConnectionRoute></ChronosDeviceInfo>;"<?xml version=""1.0""?>\n<Clock xmlns:dt=""urn:schemas-microsoft-com:datatypes""><Description dt:dt=""string"">E-Prime Primary Realtime Clock</Description><StartTime><Timestamp dt:dt=""int"">0</Timestamp><DateUtc dt:dt=""string"">2021-04-30T10:54:31Z</DateUtc></StartTime><FrequencyChanges><FrequencyChange><Frequency dt:dt=""r8"">2435566</Frequency><Timestamp dt:dt=""r8"">32896179815</Timestamp><Current dt:dt=""r8"">0</Current><DateUtc dt:dt=""string"">2021-04-30T10:54:31Z</DateUtc></FrequencyChange></FrequencyChanges></Clock>\n";EXP2.2_290421-1000005-1;60.024;1.0.0.341;1;Chronos;-1463275438;Full;3.0.3.80;3.0.3.80;04-30-2021;30/04/2021 10:54;12:54:31;3.0.3.82;2;;2;1;2;TESTVV;Generalbloc;;;;pretest;Chronos;18;1;VV_290421/890.png;4;1;18;-10;blocVVstim;listVVTrial;;;;Chronos;0;;0;0;917285;200;;0;0;1;1;Chronos;0;0;917485;299;1;418;917903;1;1;Chronos;1;-1;917784;0;1;119;917903;;;;;;;;;;;;;;;;;;;
EXP2.2_290421;1000005;1;<ChronosDeviceInfo><FriendlyName>MyChronos</FriendlyName><DeviceIndex>1</DeviceIndex><SerialNumber>CHR-04301-1186</SerialNumber><EBNVersion>3.0.3.80</EBNVersion><FirmwareVersion>1.33</FirmwareVersion><APIVersion>1.33</APIVersion><USBHostControllerVersion>2.0</USBHostControllerVersion><USBConnectionRoute>USB#ROOT_HUB20#4&9bd2e8a&0#{f18a0e88-c30c-11d0-8815-00a0c906bed8} + USB#VID_8087&PID_0024#5&3026c139&0&1#{f18a0e88-c30c-11d0-8815-00a0c906bed8}(1) + VID_2266&PID_0007(7)</USBConnectionRoute></ChronosDeviceInfo>;"<?xml version=""1.0""?>\n<Clock xmlns:dt=""urn:schemas-microsoft-com:datatypes""><Description dt:dt=""string"">E-Prime Primary Realtime Clock</Description><StartTime><Timestamp dt:dt=""int"">0</Timestamp><DateUtc dt:dt=""string"">2021-04-30T10:54:31Z</DateUtc></StartTime><FrequencyChanges><FrequencyChange><Frequency dt:dt=""r8"">2435566</Frequency><Timestamp dt:dt=""r8"">32896179815</Timestamp><Current dt:dt=""r8"">0</Current><DateUtc dt:dt=""string"">2021-04-30T10:54:31Z</DateUtc></FrequencyChange></FrequencyChanges></Clock>\n";EXP2.2_290421-1000005-1;60.024;1.0.0.341;1;Chronos;-1463275438;Full;3.0.3.80;3.0.3.80;04-30-2021;30/04/2021 10:54;12:54:31;3.0.3.82;2;;2;1;2;TESTVV;Generalbloc;;;;pretest;Chronos;19;5;VV_290421/915.png;9;1;19;15;blocVVstim;listVVTrial;;;;Chronos;0;;0;-1;919417;200;;0;0;1;5;Chronos;0;0;919617;300;5;392;920009;1;5;Chronos;0;0;919917;0;5;92;920009;;;;;;;;;;;;;;;;;;;
EXP2.2_290421;1000005;1;<ChronosDeviceInfo><FriendlyName>MyChronos</FriendlyName><DeviceIndex>1</DeviceIndex><SerialNumber>CHR-04301-1186</SerialNumber><EBNVersion>3.0.3.80</EBNVersion><FirmwareVersion>1.33</FirmwareVersion><APIVersion>1.33</APIVersion><USBHostControllerVersion>2.0</USBHostControllerVersion><USBConnectionRoute>USB#ROOT_HUB20#4&9bd2e8a&0#{f18a0e88-c30c-11d0-8815-00a0c906bed8} + USB#VID_8087&PID_0024#5&3026c139&0&1#{f18a0e88-c30c-11d0-8815-00a0c906bed8}(1) + VID_2266&PID_0007(7)</USBConnectionRoute></ChronosDeviceInfo>;"<?xml version=""1.0""?>\n<Clock xmlns:dt=""urn:schemas-microsoft-com:datatypes""><Description dt:dt=""string"">E-Prime Primary Realtime Clock</Description><StartTime><Timestamp dt:dt=""int"">0</Timestamp><DateUtc dt:dt=""string"">2021-04-30T10:54:31Z</DateUtc></StartTime><FrequencyChanges><FrequencyChange><Frequency dt:dt=""r8"">2435566</Frequency><Timestamp dt:dt=""r8"">32896179815</Timestamp><Current dt:dt=""r8"">0</Current><DateUtc dt:dt=""string"">2021-04-30T10:54:31Z</DateUtc></FrequencyChange></FrequencyChanges></Clock>\n";EXP2.2_290421-1000005-1;60.024;1.0.0.341;1;Chronos;-1463275438;Full;3.0.3.80;3.0.3.80;04-30-2021;30/04/2021 10:54;12:54:31;3.0.3.82;2;;2;1;2;TESTVV;Generalbloc;;;;pretest;Chronos;20;5;VV_290421/910.png;8;1;20;10;blocVVstim;listVVTrial;;;;Chronos;0;;0;-1;921533;200;;0;0;1;5;Chronos;0;0;921733;300;5;322;922055;1;5;Chronos;0;0;922033;0;5;22;922055;;;;;;;;;;;;;;;;;;;
EXP2.2_290421;1000005;1;<ChronosDeviceInfo><FriendlyName>MyChronos</FriendlyName><DeviceIndex>1</DeviceIndex><SerialNumber>CHR-04301-1186</SerialNumber><EBNVersion>3.0.3.80</EBNVersion><FirmwareVersion>1.33</FirmwareVersion><APIVersion>1.33</APIVersion><USBHostControllerVersion>2.0</USBHostControllerVersion><USBConnectionRoute>USB#ROOT_HUB20#4&9bd2e8a&0#{f18a0e88-c30c-11d0-8815-00a0c906bed8} + USB#VID_8087&PID_0024#5&3026c139&0&1#{f18a0e88-c30c-11d0-8815-00a0c906bed8}(1) + VID_2266&PID_0007(7)</USBConnectionRoute></ChronosDeviceInfo>;"<?xml version=""1.0""?>\n<Clock xmlns:dt=""urn:schemas-microsoft-com:datatypes""><Description dt:dt=""string"">E-Prime Primary Realtime Clock</Description><StartTime><Timestamp dt:dt=""int"">0</Timestamp><DateUtc dt:dt=""string"">2021-04-30T10:54:31Z</DateUtc></StartTime><FrequencyChanges><FrequencyChange><Frequency dt:dt=""r8"">2435566</Frequency><Timestamp dt:dt=""r8"">32896179815</Timestamp><Current dt:dt=""r8"">0</Current><DateUtc dt:dt=""string"">2021-04-30T10:54:31Z</DateUtc></FrequencyChange></FrequencyChanges></Clock>\n";EXP2.2_290421-1000005-1;60.024;1.0.0.341;1;Chronos;-1463275438;Full;3.0.3.80;3.0.3.80;04-30-2021;30/04/2021 10:54;12:54:31;3.0.3.82;2;;2;1;2;TESTVV;Generalbloc;;;;pretest;Chronos;21;15;VV_290421/900.png;6;1;21;0;blocVVstim;listVVTrial;;;;Chronos;0;;0;-1;923582;200;;0;0;0;15;Chronos;0;0;923782;300;5;619;924401;0;15;Chronos;0;0;924082;0;5;319;924401;;;;;;;;;;;;;;;;;;;
EXP2.2_290421;1000005;1;<ChronosDeviceInfo><FriendlyName>MyChronos</FriendlyName><DeviceIndex>1</DeviceIndex><SerialNumber>CHR-04301-1186</SerialNumber><EBNVersion>3.0.3.80</EBNVersion><FirmwareVersion>1.33</FirmwareVersion><APIVersion>1.33</APIVersion><USBHostControllerVersion>2.0</USBHostControllerVersion><USBConnectionRoute>USB#ROOT_HUB20#4&9bd2e8a&0#{f18a0e88-c30c-11d0-8815-00a0c906bed8} + USB#VID_8087&PID_0024#5&3026c139&0&1#{f18a0e88-c30c-11d0-8815-00a0c906bed8}(1) + VID_2266&PID_0007(7)</USBConnectionRoute></ChronosDeviceInfo>;"<?xml version=""1.0""?>\n<Clock xmlns:dt=""urn:schemas-microsoft-com:datatypes""><Description dt:dt=""string"">E-Prime Primary Realtime Clock</Description><StartTime><Timestamp dt:dt=""int"">0</Timestamp><DateUtc dt:dt=""string"">2021-04-30T10:54:31Z</DateUtc></StartTime><FrequencyChanges><FrequencyChange><Frequency dt:dt=""r8"">2435566</Frequency><Timestamp dt:dt=""r8"">32896179815</Timestamp><Current dt:dt=""r8"">0</Current><DateUtc dt:dt=""string"">2021-04-30T10:54:31Z</DateUtc></FrequencyChange></FrequencyChanges></Clock>\n";EXP2.2_290421-1000005-1;60.024;1.0.0.341;1;Chronos;-1463275438;Full;3.0.3.80;3.0.3.80;04-30-2021;30/04/2021 10:54;12:54:31;3.0.3.82;2;;2;1;2;TESTVV;Generalbloc;;;;pretest;Chronos;22;1;VV_290421/875.png;1;1;22;-25;blocVVstim;listVVTrial;;;;Chronos;0;;0;0;925915;200;;0;0;1;1;Chronos;0;0;926115;299;1;424;926539;1;1;Chronos;1;-1;926414;0;1;125;926539;;;;;;;;;;;;;;;;;;;
EXP2.2_290421;1000005;1;<ChronosDeviceInfo><FriendlyName>MyChronos</FriendlyName><DeviceIndex>1</DeviceIndex><SerialNumber>CHR-04301-1186</SerialNumber><EBNVersion>3.0.3.80</EBNVersion><FirmwareVersion>1.33</FirmwareVersion><APIVersion>1.33</APIVersion><USBHostControllerVersion>2.0</USBHostControllerVersion><USBConnectionRoute>USB#ROOT_HUB20#4&9bd2e8a&0#{f18a0e88-c30c-11d0-8815-00a0c906bed8} + USB#VID_8087&PID_0024#5&3026c139&0&1#{f18a0e88-c30c-11d0-8815-00a0c906bed8}(1) + VID_2266&PID_0007(7)</USBConnectionRoute></ChronosDeviceInfo>;"<?xml version=""1.0""?>\n<Clock xmlns:dt=""urn:schemas-microsoft-com:datatypes""><Description dt:dt=""string"">E-Prime Primary Realtime Clock</Description><StartTime><Timestamp dt:dt=""int"">0</Timestamp><DateUtc dt:dt=""string"">2021-04-30T10:54:31Z</DateUtc></StartTime><FrequencyChanges><FrequencyChange><Frequency dt:dt=""r8"">2435566</Frequency><Timestamp dt:dt=""r8"">32896179815</Timestamp><Current dt:dt=""r8"">0</Current><DateUtc dt:dt=""string"">2021-04-30T10:54:31Z</DateUtc></FrequencyChange></FrequencyChanges></Clock>\n";EXP2.2_290421-1000005-1;60.024;1.0.0.341;1;Chronos;-1463275438;Full;3.0.3.80;3.0.3.80;04-30-2021;30/04/2021 10:54;12:54:31;3.0.3.82;2;;2;1;2;TESTVV;Generalbloc;;;;pretest;Chronos;23;5;VV_290421/920.png;10;1;23;20;blocVVstim;listVVTrial;;;;Chronos;0;;0;0;928064;200;;0;0;1;5;Chronos;0;0;928264;300;5;354;928618;1;5;Chronos;0;0;928564;0;5;54;928618;;;;;;;;;;;;;;;;;;;
EXP2.2_290421;1000005;1;<ChronosDeviceInfo><FriendlyName>MyChronos</FriendlyName><DeviceIndex>1</DeviceIndex><SerialNumber>CHR-04301-1186</SerialNumber><EBNVersion>3.0.3.80</EBNVersion><FirmwareVersion>1.33</FirmwareVersion><APIVersion>1.33</APIVersion><USBHostControllerVersion>2.0</USBHostControllerVersion><USBConnectionRoute>USB#ROOT_HUB20#4&9bd2e8a&0#{f18a0e88-c30c-11d0-8815-00a0c906bed8} + USB#VID_8087&PID_0024#5&3026c139&0&1#{f18a0e88-c30c-11d0-8815-00a0c906bed8}(1) + VID_2266&PID_0007(7)</USBConnectionRoute></ChronosDeviceInfo>;"<?xml version=""1.0""?>\n<Clock xmlns:dt=""urn:schemas-microsoft-com:datatypes""><Description dt:dt=""string"">E-Prime Primary Realtime Clock</Description><StartTime><Timestamp dt:dt=""int"">0</Timestamp><DateUtc dt:dt=""string"">2021-04-30T10:54:31Z</DateUtc></StartTime><FrequencyChanges><FrequencyChange><Frequency dt:dt=""r8"">2435566</Frequency><Timestamp dt:dt=""r8"">32896179815</Timestamp><Current dt:dt=""r8"">0</Current><DateUtc dt:dt=""string"">2021-04-30T10:54:31Z</DateUtc></FrequencyChange></FrequencyChanges></Clock>\n";EXP2.2_290421-1000005-1;60.024;1.0.0.341;1;Chronos;-1463275438;Full;3.0.3.80;3.0.3.80;04-30-2021;30/04/2021 10:54;12:54:31;3.0.3.82;2;;2;1;2;TESTVV;Generalbloc;;;;pretest;Chronos;24;5;VV_290421/905.png;7;1;24;5;blocVVstim;listVVTrial;;;;Chronos;0;;0;-1;930146;200;;0;0;1;5;Chronos;0;0;930346;300;5;653;930999;1;5;Chronos;0;0;930646;0;5;353;930999;;;;;;;;;;;;;;;;;;;
EXP2.2_290421;1000005;1;<ChronosDeviceInfo><FriendlyName>MyChronos</FriendlyName><DeviceIndex>1</DeviceIndex><SerialNumber>CHR-04301-1186</SerialNumber><EBNVersion>3.0.3.80</EBNVersion><FirmwareVersion>1.33</FirmwareVersion><APIVersion>1.33</APIVersion><USBHostControllerVersion>2.0</USBHostControllerVersion><USBConnectionRoute>USB#ROOT_HUB20#4&9bd2e8a&0#{f18a0e88-c30c-11d0-8815-00a0c906bed8} + USB#VID_8087&PID_0024#5&3026c139&0&1#{f18a0e88-c30c-11d0-8815-00a0c906bed8}(1) + VID_2266&PID_0007(7)</USBConnectionRoute></ChronosDeviceInfo>;"<?xml version=""1.0""?>\n<Clock xmlns:dt=""urn:schemas-microsoft-com:datatypes""><Description dt:dt=""string"">E-Prime Primary Realtime Clock</Description><StartTime><Timestamp dt:dt=""int"">0</Timestamp><DateUtc dt:dt=""string"">2021-04-30T10:54:31Z</DateUtc></StartTime><FrequencyChanges><FrequencyChange><Frequency dt:dt=""r8"">2435566</Frequency><Timestamp dt:dt=""r8"">32896179815</Timestamp><Current dt:dt=""r8"">0</Current><DateUtc dt:dt=""string"">2021-04-30T10:54:31Z</DateUtc></FrequencyChange></FrequencyChanges></Clock>\n";EXP2.2_290421-1000005-1;60.024;1.0.0.341;1;Chronos;-1463275438;Full;3.0.3.80;3.0.3.80;04-30-2021;30/04/2021 10:54;12:54:31;3.0.3.82;2;;2;1;2;TESTVV;Generalbloc;;;;pretest;Chronos;25;5;VV_290421/905.png;7;1;25;5;blocVVstim;listVVTrial;;;;Chronos;0;;0;-1;932512;200;;0;0;1;5;Chronos;0;0;932712;300;5;752;933464;1;5;Chronos;0;0;933012;0;5;452;933464;;;;;;;;;;;;;;;;;;;
EXP2.2_290421;1000005;1;<ChronosDeviceInfo><FriendlyName>MyChronos</FriendlyName><DeviceIndex>1</DeviceIndex><SerialNumber>CHR-04301-1186</SerialNumber><EBNVersion>3.0.3.80</EBNVersion><FirmwareVersion>1.33</FirmwareVersion><APIVersion>1.33</APIVersion><USBHostControllerVersion>2.0</USBHostControllerVersion><USBConnectionRoute>USB#ROOT_HUB20#4&9bd2e8a&0#{f18a0e88-c30c-11d0-8815-00a0c906bed8} + USB#VID_8087&PID_0024#5&3026c139&0&1#{f18a0e88-c30c-11d0-8815-00a0c906bed8}(1) + VID_2266&PID_0007(7)</USBConnectionRoute></ChronosDeviceInfo>;"<?xml version=""1.0""?>\n<Clock xmlns:dt=""urn:schemas-microsoft-com:datatypes""><Description dt:dt=""string"">E-Prime Primary Realtime Clock</Description><StartTime><Timestamp dt:dt=""int"">0</Timestamp><DateUtc dt:dt=""string"">2021-04-30T10:54:31Z</DateUtc></StartTime><FrequencyChanges><FrequencyChange><Frequency dt:dt=""r8"">2435566</Frequency><Timestamp dt:dt=""r8"">32896179815</Timestamp><Current dt:dt=""r8"">0</Current><DateUtc dt:dt=""string"">2021-04-30T10:54:31Z</DateUtc></FrequencyChange></FrequencyChanges></Clock>\n";EXP2.2_290421-1000005-1;60.024;1.0.0.341;1;Chronos;-1463275438;Full;3.0.3.80;3.0.3.80;04-30-2021;30/04/2021 10:54;12:54:31;3.0.3.82;2;;2;1;2;TESTVV;Generalbloc;;;;pretest;Chronos;26;1;VV_290421/875.png;1;1;26;-25;blocVVstim;listVVTrial;;;;Chronos;0;;0;0;934978;200;;0;0;1;1;Chronos;0;0;935178;300;1;399;935577;1;1;Chronos;0;0;935478;0;1;99;935577;;;;;;;;;;;;;;;;;;;
EXP2.2_290421;1000005;1;<ChronosDeviceInfo><FriendlyName>MyChronos</FriendlyName><DeviceIndex>1</DeviceIndex><SerialNumber>CHR-04301-1186</SerialNumber><EBNVersion>3.0.3.80</EBNVersion><FirmwareVersion>1.33</FirmwareVersion><APIVersion>1.33</APIVersion><USBHostControllerVersion>2.0</USBHostControllerVersion><USBConnectionRoute>USB#ROOT_HUB20#4&9bd2e8a&0#{f18a0e88-c30c-11d0-8815-00a0c906bed8} + USB#VID_8087&PID_0024#5&3026c139&0&1#{f18a0e88-c30c-11d0-8815-00a0c906bed8}(1) + VID_2266&PID_0007(7)</USBConnectionRoute></ChronosDeviceInfo>;"<?xml version=""1.0""?>\n<Clock xmlns:dt=""urn:schemas-microsoft-com:datatypes""><Description dt:dt=""string"">E-Prime Primary Realtime Clock</Description><StartTime><Timestamp dt:dt=""int"">0</Timestamp><DateUtc dt:dt=""string"">2021-04-30T10:54:31Z</DateUtc></StartTime><FrequencyChanges><FrequencyChange><Frequency dt:dt=""r8"">2435566</Frequency><Timestamp dt:dt=""r8"">32896179815</Timestamp><Current dt:dt=""r8"">0</Current><DateUtc dt:dt=""string"">2021-04-30T10:54:31Z</DateUtc></FrequencyChange></FrequencyChanges></Clock>\n";EXP2.2_290421-1000005-1;60.024;1.0.0.341;1;Chronos;-1463275438;Full;3.0.3.80;3.0.3.80;04-30-2021;30/04/2021 10:54;12:54:31;3.0.3.82;2;;2;1;2;TESTVV;Generalbloc;;;;pretest;Chronos;27;5;VV_290421/905.png;7;1;27;5;blocVVstim;listVVTrial;;;;Chronos;0;;0;0;937094;200;;0;0;1;5;Chronos;0;0;937294;299;5;1098;938392;1;5;Chronos;1;-1;937593;0;5;799;938392;;;;;;;;;;;;;;;;;;;
EXP2.2_290421;1000005;1;<ChronosDeviceInfo><FriendlyName>MyChronos</FriendlyName><DeviceIndex>1</DeviceIndex><SerialNumber>CHR-04301-1186</SerialNumber><EBNVersion>3.0.3.80</EBNVersion><FirmwareVersion>1.33</FirmwareVersion><APIVersion>1.33</APIVersion><USBHostControllerVersion>2.0</USBHostControllerVersion><USBConnectionRoute>USB#ROOT_HUB20#4&9bd2e8a&0#{f18a0e88-c30c-11d0-8815-00a0c906bed8} + USB#VID_8087&PID_0024#5&3026c139&0&1#{f18a0e88-c30c-11d0-8815-00a0c906bed8}(1) + VID_2266&PID_0007(7)</USBConnectionRoute></ChronosDeviceInfo>;"<?xml version=""1.0""?>\n<Clock xmlns:dt=""urn:schemas-microsoft-com:datatypes""><Description dt:dt=""string"">E-Prime Primary Realtime Clock</Description><StartTime><Timestamp dt:dt=""int"">0</Timestamp><DateUtc dt:dt=""string"">2021-04-30T10:54:31Z</DateUtc></StartTime><FrequencyChanges><FrequencyChange><Frequency dt:dt=""r8"">2435566</Frequency><Timestamp dt:dt=""r8"">32896179815</Timestamp><Current dt:dt=""r8"">0</Current><DateUtc dt:dt=""string"">2021-04-30T10:54:31Z</DateUtc></FrequencyChange></FrequencyChanges></Clock>\n";EXP2.2_290421-1000005-1;60.024;1.0.0.341;1;Chronos;-1463275438;Full;3.0.3.80;3.0.3.80;04-30-2021;30/04/2021 10:54;12:54:31;3.0.3.82;2;;2;1;2;TESTVV;Generalbloc;;;;pretest;Chronos;28;1;VV_290421/875.png;1;1;28;-25;blocVVstim;listVVTrial;;;;Chronos;0;;0;-1;939909;200;;0;0;0;1;Chronos;0;0;940109;300;5;851;940960;0;1;Chronos;0;0;940409;0;5;551;940960;;;;;;;;;;;;;;;;;;;
EXP2.2_290421;1000005;1;<ChronosDeviceInfo><FriendlyName>MyChronos</FriendlyName><DeviceIndex>1</DeviceIndex><SerialNumber>CHR-04301-1186</SerialNumber><EBNVersion>3.0.3.80</EBNVersion><FirmwareVersion>1.33</FirmwareVersion><APIVersion>1.33</APIVersion><USBHostControllerVersion>2.0</USBHostControllerVersion><USBConnectionRoute>USB#ROOT_HUB20#4&9bd2e8a&0#{f18a0e88-c30c-11d0-8815-00a0c906bed8} + USB#VID_8087&PID_0024#5&3026c139&0&1#{f18a0e88-c30c-11d0-8815-00a0c906bed8}(1) + VID_2266&PID_0007(7)</USBConnectionRoute></ChronosDeviceInfo>;"<?xml version=""1.0""?>\n<Clock xmlns:dt=""urn:schemas-microsoft-com:datatypes""><Description dt:dt=""string"">E-Prime Primary Realtime Clock</Description><StartTime><Timestamp dt:dt=""int"">0</Timestamp><DateUtc dt:dt=""string"">2021-04-30T10:54:31Z</DateUtc></StartTime><FrequencyChanges><FrequencyChange><Frequency dt:dt=""r8"">2435566</Frequency><Timestamp dt:dt=""r8"">32896179815</Timestamp><Current dt:dt=""r8"">0</Current><DateUtc dt:dt=""string"">2021-04-30T10:54:31Z</DateUtc></FrequencyChange></FrequencyChanges></Clock>\n";EXP2.2_290421-1000005-1;60.024;1.0.0.341;1;Chronos;-1463275438;Full;3.0.3.80;3.0.3.80;04-30-2021;30/04/2021 10:54;12:54:31;3.0.3.82;2;;2;1;2;TESTVV;Generalbloc;;;;pretest;Chronos;29;1;VV_290421/885.png;3;1;29;-15;blocVVstim;listVVTrial;;;;Chronos;0;;0;-1;942475;200;;0;0;0;1;Chronos;0;0;942675;300;5;1132;943807;0;1;Chronos;0;0;942975;0;5;832;943807;;;;;;;;;;;;;;;;;;;
EXP2.2_290421;1000005;1;<ChronosDeviceInfo><FriendlyName>MyChronos</FriendlyName><DeviceIndex>1</DeviceIndex><SerialNumber>CHR-04301-1186</SerialNumber><EBNVersion>3.0.3.80</EBNVersion><FirmwareVersion>1.33</FirmwareVersion><APIVersion>1.33</APIVersion><USBHostControllerVersion>2.0</USBHostControllerVersion><USBConnectionRoute>USB#ROOT_HUB20#4&9bd2e8a&0#{f18a0e88-c30c-11d0-8815-00a0c906bed8} + USB#VID_8087&PID_0024#5&3026c139&0&1#{f18a0e88-c30c-11d0-8815-00a0c906bed8}(1) + VID_2266&PID_0007(7)</USBConnectionRoute></ChronosDeviceInfo>;"<?xml version=""1.0""?>\n<Clock xmlns:dt=""urn:schemas-microsoft-com:datatypes""><Description dt:dt=""string"">E-Prime Primary Realtime Clock</Description><StartTime><Timestamp dt:dt=""int"">0</Timestamp><DateUtc dt:dt=""string"">2021-04-30T10:54:31Z</DateUtc></StartTime><FrequencyChanges><FrequencyChange><Frequency dt:dt=""r8"">2435566</Frequency><Timestamp dt:dt=""r8"">32896179815</Timestamp><Current dt:dt=""r8"">0</Current><DateUtc dt:dt=""string"">2021-04-30T10:54:31Z</DateUtc></FrequencyChange></FrequencyChanges></Clock>\n";EXP2.2_290421-1000005-1;60.024;1.0.0.341;1;Chronos;-1463275438;Full;3.0.3.80;3.0.3.80;04-30-2021;30/04/2021 10:54;12:54:31;3.0.3.82;2;;2;1;2;TESTVV;Generalbloc;;;;pretest;Chronos;30;1;VV_290421/890.png;4;1;30;-10;blocVVstim;listVVTrial;;;;Chronos;0;;0;0;945324;200;;0;0;0;1;Chronos;0;0;945524;300;5;842;946366;0;1;Chronos;0;0;945824;0;5;542;946366;;;;;;;;;;;;;;;;;;;
EXP2.2_290421;1000005;1;<ChronosDeviceInfo><FriendlyName>MyChronos</FriendlyName><DeviceIndex>1</DeviceIndex><SerialNumber>CHR-04301-1186</SerialNumber><EBNVersion>3.0.3.80</EBNVersion><FirmwareVersion>1.33</FirmwareVersion><APIVersion>1.33</APIVersion><USBHostControllerVersion>2.0</USBHostControllerVersion><USBConnectionRoute>USB#ROOT_HUB20#4&9bd2e8a&0#{f18a0e88-c30c-11d0-8815-00a0c906bed8} + USB#VID_8087&PID_0024#5&3026c139&0&1#{f18a0e88-c30c-11d0-8815-00a0c906bed8}(1) + VID_2266&PID_0007(7)</USBConnectionRoute></ChronosDeviceInfo>;"<?xml version=""1.0""?>\n<Clock xmlns:dt=""urn:schemas-microsoft-com:datatypes""><Description dt:dt=""string"">E-Prime Primary Realtime Clock</Description><StartTime><Timestamp dt:dt=""int"">0</Timestamp><DateUtc dt:dt=""string"">2021-04-30T10:54:31Z</DateUtc></StartTime><FrequencyChanges><FrequencyChange><Frequency dt:dt=""r8"">2435566</Frequency><Timestamp dt:dt=""r8"">32896179815</Timestamp><Current dt:dt=""r8"">0</Current><DateUtc dt:dt=""string"">2021-04-30T10:54:31Z</DateUtc></FrequencyChange></FrequencyChanges></Clock>\n";EXP2.2_290421-1000005-1;60.024;1.0.0.341;1;Chronos;-1463275438;Full;3.0.3.80;3.0.3.80;04-30-2021;30/04/2021 10:54;12:54:31;3.0.3.82;2;;2;1;2;TESTVV;Generalbloc;;;;pretest;Chronos;31;15;VV_290421/900.png;6;1;31;0;blocVVstim;listVVTrial;;;;Chronos;0;;0;0;947890;199;;0;0;0;15;Chronos;1;-1;948089;300;5;853;948942;0;15;Chronos;0;0;948389;0;5;553;948942;;;;;;;;;;;;;;;;;;;
EXP2.2_290421;1000005;1;<ChronosDeviceInfo><FriendlyName>MyChronos</FriendlyName><DeviceIndex>1</DeviceIndex><SerialNumber>CHR-04301-1186</SerialNumber><EBNVersion>3.0.3.80</EBNVersion><FirmwareVersion>1.33</FirmwareVersion><APIVersion>1.33</APIVersion><USBHostControllerVersion>2.0</USBHostControllerVersion><USBConnectionRoute>USB#ROOT_HUB20#4&9bd2e8a&0#{f18a0e88-c30c-11d0-8815-00a0c906bed8} + USB#VID_8087&PID_0024#5&3026c139&0&1#{f18a0e88-c30c-11d0-8815-00a0c906bed8}(1) + VID_2266&PID_0007(7)</USBConnectionRoute></ChronosDeviceInfo>;"<?xml version=""1.0""?>\n<Clock xmlns:dt=""urn:schemas-microsoft-com:datatypes""><Description dt:dt=""string"">E-Prime Primary Realtime Clock</Description><StartTime><Timestamp dt:dt=""int"">0</Timestamp><DateUtc dt:dt=""string"">2021-04-30T10:54:31Z</DateUtc></StartTime><FrequencyChanges><FrequencyChange><Frequency dt:dt=""r8"">2435566</Frequency><Timestamp dt:dt=""r8"">32896179815</Timestamp><Current dt:dt=""r8"">0</Current><DateUtc dt:dt=""string"">2021-04-30T10:54:31Z</DateUtc></FrequencyChange></FrequencyChanges></Clock>\n";EXP2.2_290421-1000005-1;60.024;1.0.0.341;1;Chronos;-1463275438;Full;3.0.3.80;3.0.3.80;04-30-2021;30/04/2021 10:54;12:54:31;3.0.3.82;2;;2;1;2;TESTVV;Generalbloc;;;;pretest;Chronos;32;1;VV_290421/885.png;3;1;32;-15;blocVVstim;listVVTrial;;;;Chronos;0;;0;0;950472;200;;0;0;1;1;Chronos;0;0;950672;300;1;1039;951711;1;1;Chronos;0;0;950972;0;1;739;951711;;;;;;;;;;;;;;;;;;;
EXP2.2_290421;1000005;1;<ChronosDeviceInfo><FriendlyName>MyChronos</FriendlyName><DeviceIndex>1</DeviceIndex><SerialNumber>CHR-04301-1186</SerialNumber><EBNVersion>3.0.3.80</EBNVersion><FirmwareVersion>1.33</FirmwareVersion><APIVersion>1.33</APIVersion><USBHostControllerVersion>2.0</USBHostControllerVersion><USBConnectionRoute>USB#ROOT_HUB20#4&9bd2e8a&0#{f18a0e88-c30c-11d0-8815-00a0c906bed8} + USB#VID_8087&PID_0024#5&3026c139&0&1#{f18a0e88-c30c-11d0-8815-00a0c906bed8}(1) + VID_2266&PID_0007(7)</USBConnectionRoute></ChronosDeviceInfo>;"<?xml version=""1.0""?>\n<Clock xmlns:dt=""urn:schemas-microsoft-com:datatypes""><Description dt:dt=""string"">E-Prime Primary Realtime Clock</Description><StartTime><Timestamp dt:dt=""int"">0</Timestamp><DateUtc dt:dt=""string"">2021-04-30T10:54:31Z</DateUtc></StartTime><FrequencyChanges><FrequencyChange><Frequency dt:dt=""r8"">2435566</Frequency><Timestamp dt:dt=""r8"">32896179815</Timestamp><Current dt:dt=""r8"">0</Current><DateUtc dt:dt=""string"">2021-04-30T10:54:31Z</DateUtc></FrequencyChange></FrequencyChanges></Clock>\n";EXP2.2_290421-1000005-1;60.024;1.0.0.341;1;Chronos;-1463275438;Full;3.0.3.80;3.0.3.80;04-30-2021;30/04/2021 10:54;12:54:31;3.0.3.82;2;;2;1;2;TESTVV;Generalbloc;;;;pretest;Chronos;33;15;VV_290421/900.png;6;1;33;0;blocVVstim;listVVTrial;;;;Chronos;0;;1;-1;953237;200;;0;0;0;15;Chronos;0;0;953437;0;5;212;953649;0;;;-999999;0;0;0;;0;0;;;;;;;;;;;;;;;;;;;
EXP2.2_290421;1000005;1;<ChronosDeviceInfo><FriendlyName>MyChronos</FriendlyName><DeviceIndex>1</DeviceIndex><SerialNumber>CHR-04301-1186</SerialNumber><EBNVersion>3.0.3.80</EBNVersion><FirmwareVersion>1.33</FirmwareVersion><APIVersion>1.33</APIVersion><USBHostControllerVersion>2.0</USBHostControllerVersion><USBConnectionRoute>USB#ROOT_HUB20#4&9bd2e8a&0#{f18a0e88-c30c-11d0-8815-00a0c906bed8} + USB#VID_8087&PID_0024#5&3026c139&0&1#{f18a0e88-c30c-11d0-8815-00a0c906bed8}(1) + VID_2266&PID_0007(7)</USBConnectionRoute></ChronosDeviceInfo>;"<?xml version=""1.0""?>\n<Clock xmlns:dt=""urn:schemas-microsoft-com:datatypes""><Description dt:dt=""string"">E-Prime Primary Realtime Clock</Description><StartTime><Timestamp dt:dt=""int"">0</Timestamp><DateUtc dt:dt=""string"">2021-04-30T10:54:31Z</DateUtc></StartTime><FrequencyChanges><FrequencyChange><Frequency dt:dt=""r8"">2435566</Frequency><Timestamp dt:dt=""r8"">32896179815</Timestamp><Current dt:dt=""r8"">0</Current><DateUtc dt:dt=""string"">2021-04-30T10:54:31Z</DateUtc></FrequencyChange></FrequencyChanges></Clock>\n";EXP2.2_290421-1000005-1;60.024;1.0.0.341;1;Chronos;-1463275438;Full;3.0.3.80;3.0.3.80;04-30-2021;30/04/2021 10:54;12:54:31;3.0.3.82;2;;2;1;2;TESTVV;Generalbloc;;;;pretest;Chronos;34;5;VV_290421/905.png;7;1;34;5;blocVVstim;listVVTrial;;;;Chronos;0;;0;-1;955170;200;;0;0;1;5;Chronos;0;0;955370;300;5;378;955748;1;5;Chronos;0;0;955670;0;5;78;955748;;;;;;;;;;;;;;;;;;;
EXP2.2_290421;1000005;1;<ChronosDeviceInfo><FriendlyName>MyChronos</FriendlyName><DeviceIndex>1</DeviceIndex><SerialNumber>CHR-04301-1186</SerialNumber><EBNVersion>3.0.3.80</EBNVersion><FirmwareVersion>1.33</FirmwareVersion><APIVersion>1.33</APIVersion><USBHostControllerVersion>2.0</USBHostControllerVersion><USBConnectionRoute>USB#ROOT_HUB20#4&9bd2e8a&0#{f18a0e88-c30c-11d0-8815-00a0c906bed8} + USB#VID_8087&PID_0024#5&3026c139&0&1#{f18a0e88-c30c-11d0-8815-00a0c906bed8}(1) + VID_2266&PID_0007(7)</USBConnectionRoute></ChronosDeviceInfo>;"<?xml version=""1.0""?>\n<Clock xmlns:dt=""urn:schemas-microsoft-com:datatypes""><Description dt:dt=""string"">E-Prime Primary Realtime Clock</Description><StartTime><Timestamp dt:dt=""int"">0</Timestamp><DateUtc dt:dt=""string"">2021-04-30T10:54:31Z</DateUtc></StartTime><FrequencyChanges><FrequencyChange><Frequency dt:dt=""r8"">2435566</Frequency><Timestamp dt:dt=""r8"">32896179815</Timestamp><Current dt:dt=""r8"">0</Current><DateUtc dt:dt=""string"">2021-04-30T10:54:31Z</DateUtc></FrequencyChange></FrequencyChanges></Clock>\n";EXP2.2_290421-1000005-1;60.024;1.0.0.341;1;Chronos;-1463275438;Full;3.0.3.80;3.0.3.80;04-30-2021;30/04/2021 10:54;12:54:31;3.0.3.82;2;;2;1;2;TESTVV;Generalbloc;;;;pretest;Chronos;35;5;VV_290421/920.png;10;1;35;20;blocVVstim;listVVTrial;;;;Chronos;0;;0;-1;957269;200;;0;0;1;5;Chronos;0;0;957469;300;5;439;957908;1;5;Chronos;0;0;957769;0;5;139;957908;;;;;;;;;;;;;;;;;;;
EXP2.2_290421;1000005;1;<ChronosDeviceInfo><FriendlyName>MyChronos</FriendlyName><DeviceIndex>1</DeviceIndex><SerialNumber>CHR-04301-1186</SerialNumber><EBNVersion>3.0.3.80</EBNVersion><FirmwareVersion>1.33</FirmwareVersion><APIVersion>1.33</APIVersion><USBHostControllerVersion>2.0</USBHostControllerVersion><USBConnectionRoute>USB#ROOT_HUB20#4&9bd2e8a&0#{f18a0e88-c30c-11d0-8815-00a0c906bed8} + USB#VID_8087&PID_0024#5&3026c139&0&1#{f18a0e88-c30c-11d0-8815-00a0c906bed8}(1) + VID_2266&PID_0007(7)</USBConnectionRoute></ChronosDeviceInfo>;"<?xml version=""1.0""?>\n<Clock xmlns:dt=""urn:schemas-microsoft-com:datatypes""><Description dt:dt=""string"">E-Prime Primary Realtime Clock</Description><StartTime><Timestamp dt:dt=""int"">0</Timestamp><DateUtc dt:dt=""string"">2021-04-30T10:54:31Z</DateUtc></StartTime><FrequencyChanges><FrequencyChange><Frequency dt:dt=""r8"">2435566</Frequency><Timestamp dt:dt=""r8"">32896179815</Timestamp><Current dt:dt=""r8"">0</Current><DateUtc dt:dt=""string"">2021-04-30T10:54:31Z</DateUtc></FrequencyChange></FrequencyChanges></Clock>\n";EXP2.2_290421-1000005-1;60.024;1.0.0.341;1;Chronos;-1463275438;Full;3.0.3.80;3.0.3.80;04-30-2021;30/04/2021 10:54;12:54:31;3.0.3.82;2;;2;1;2;TESTVV;Generalbloc;;;;pretest;Chronos;36;1;VV_290421/890.png;4;1;36;-10;blocVVstim;listVVTrial;;;;Chronos;0;;0;-1;959435;200;;0;0;1;1;Chronos;0;0;959635;300;1;364;959999;1;1;Chronos;0;0;959935;0;1;64;959999;;;;;;;;;;;;;;;;;;;
EXP2.2_290421;1000005;1;<ChronosDeviceInfo><FriendlyName>MyChronos</FriendlyName><DeviceIndex>1</DeviceIndex><SerialNumber>CHR-04301-1186</SerialNumber><EBNVersion>3.0.3.80</EBNVersion><FirmwareVersion>1.33</FirmwareVersion><APIVersion>1.33</APIVersion><USBHostControllerVersion>2.0</USBHostControllerVersion><USBConnectionRoute>USB#ROOT_HUB20#4&9bd2e8a&0#{f18a0e88-c30c-11d0-8815-00a0c906bed8} + USB#VID_8087&PID_0024#5&3026c139&0&1#{f18a0e88-c30c-11d0-8815-00a0c906bed8}(1) + VID_2266&PID_0007(7)</USBConnectionRoute></ChronosDeviceInfo>;"<?xml version=""1.0""?>\n<Clock xmlns:dt=""urn:schemas-microsoft-com:datatypes""><Description dt:dt=""string"">E-Prime Primary Realtime Clock</Description><StartTime><Timestamp dt:dt=""int"">0</Timestamp><DateUtc dt:dt=""string"">2021-04-30T10:54:31Z</DateUtc></StartTime><FrequencyChanges><FrequencyChange><Frequency dt:dt=""r8"">2435566</Frequency><Timestamp dt:dt=""r8"">32896179815</Timestamp><Current dt:dt=""r8"">0</Current><DateUtc dt:dt=""string"">2021-04-30T10:54:31Z</DateUtc></FrequencyChange></FrequencyChanges></Clock>\n";EXP2.2_290421-1000005-1;60.024;1.0.0.341;1;Chronos;-1463275438;Full;3.0.3.80;3.0.3.80;04-30-2021;30/04/2021 10:54;12:54:31;3.0.3.82;2;;2;1;2;TESTVV;Generalbloc;;;;pretest;Chronos;37;5;VV_290421/925.png;11;1;37;25;blocVVstim;listVVTrial;;;;Chronos;0;;0;0;961518;199;;0;0;1;5;Chronos;1;-1;961717;300;5;607;962324;1;5;Chronos;0;0;962017;0;5;307;962324;;;;;;;;;;;;;;;;;;;
EXP2.2_290421;1000005;1;<ChronosDeviceInfo><FriendlyName>MyChronos</FriendlyName><DeviceIndex>1</DeviceIndex><SerialNumber>CHR-04301-1186</SerialNumber><EBNVersion>3.0.3.80</EBNVersion><FirmwareVersion>1.33</FirmwareVersion><APIVersion>1.33</APIVersion><USBHostControllerVersion>2.0</USBHostControllerVersion><USBConnectionRoute>USB#ROOT_HUB20#4&9bd2e8a&0#{f18a0e88-c30c-11d0-8815-00a0c906bed8} + USB#VID_8087&PID_0024#5&3026c139&0&1#{f18a0e88-c30c-11d0-8815-00a0c906bed8}(1) + VID_2266&PID_0007(7)</USBConnectionRoute></ChronosDeviceInfo>;"<?xml version=""1.0""?>\n<Clock xmlns:dt=""urn:schemas-microsoft-com:datatypes""><Description dt:dt=""string"">E-Prime Primary Realtime Clock</Description><StartTime><Timestamp dt:dt=""int"">0</Timestamp><DateUtc dt:dt=""string"">2021-04-30T10:54:31Z</DateUtc></StartTime><FrequencyChanges><FrequencyChange><Frequency dt:dt=""r8"">2435566</Frequency><Timestamp dt:dt=""r8"">32896179815</Timestamp><Current dt:dt=""r8"">0</Current><DateUtc dt:dt=""string"">2021-04-30T10:54:31Z</DateUtc></FrequencyChange></FrequencyChanges></Clock>\n";EXP2.2_290421-1000005-1;60.024;1.0.0.341;1;Chronos;-1463275438;Full;3.0.3.80;3.0.3.80;04-30-2021;30/04/2021 10:54;12:54:31;3.0.3.82;2;;2;1;2;TESTVV;Generalbloc;;;;pretest;Chronos;38;1;VV_290421/895.png;5;1;38;-5;blocVVstim;listVVTrial;;;;Chronos;0;;0;-1;963850;200;;0;0;0;1;Chronos;0;0;964050;300;5;980;965030;0;1;Chronos;0;0;964350;0;5;680;965030;;;;;;;;;;;;;;;;;;;
EXP2.2_290421;1000005;1;<ChronosDeviceInfo><FriendlyName>MyChronos</FriendlyName><DeviceIndex>1</DeviceIndex><SerialNumber>CHR-04301-1186</SerialNumber><EBNVersion>3.0.3.80</EBNVersion><FirmwareVersion>1.33</FirmwareVersion><APIVersion>1.33</APIVersion><USBHostControllerVersion>2.0</USBHostControllerVersion><USBConnectionRoute>USB#ROOT_HUB20#4&9bd2e8a&0#{f18a0e88-c30c-11d0-8815-00a0c906bed8} + USB#VID_8087&PID_0024#5&3026c139&0&1#{f18a0e88-c30c-11d0-8815-00a0c906bed8}(1) + VID_2266&PID_0007(7)</USBConnectionRoute></ChronosDeviceInfo>;"<?xml version=""1.0""?>\n<Clock xmlns:dt=""urn:schemas-microsoft-com:datatypes""><Description dt:dt=""string"">E-Prime Primary Realtime Clock</Description><StartTime><Timestamp dt:dt=""int"">0</Timestamp><DateUtc dt:dt=""string"">2021-04-30T10:54:31Z</DateUtc></StartTime><FrequencyChanges><FrequencyChange><Frequency dt:dt=""r8"">2435566</Frequency><Timestamp dt:dt=""r8"">32896179815</Timestamp><Current dt:dt=""r8"">0</Current><DateUtc dt:dt=""string"">2021-04-30T10:54:31Z</DateUtc></FrequencyChange></FrequencyChanges></Clock>\n";EXP2.2_290421-1000005-1;60.024;1.0.0.341;1;Chronos;-1463275438;Full;3.0.3.80;3.0.3.80;04-30-2021;30/04/2021 10:54;12:54:31;3.0.3.82;2;;2;1;2;TESTVV;Generalbloc;;;;pretest;Chronos;39;1;VV_290421/895.png;5;1;39;-5;blocVVstim;listVVTrial;;;;Chronos;0;;0;-1;966549;200;;0;0;1;1;Chronos;0;0;966749;300;1;334;967083;1;1;Chronos;0;0;967049;0;1;34;967083;;;;;;;;;;;;;;;;;;;
EXP2.2_290421;1000005;1;<ChronosDeviceInfo><FriendlyName>MyChronos</FriendlyName><DeviceIndex>1</DeviceIndex><SerialNumber>CHR-04301-1186</SerialNumber><EBNVersion>3.0.3.80</EBNVersion><FirmwareVersion>1.33</FirmwareVersion><APIVersion>1.33</APIVersion><USBHostControllerVersion>2.0</USBHostControllerVersion><USBConnectionRoute>USB#ROOT_HUB20#4&9bd2e8a&0#{f18a0e88-c30c-11d0-8815-00a0c906bed8} + USB#VID_8087&PID_0024#5&3026c139&0&1#{f18a0e88-c30c-11d0-8815-00a0c906bed8}(1) + VID_2266&PID_0007(7)</USBConnectionRoute></ChronosDeviceInfo>;"<?xml version=""1.0""?>\n<Clock xmlns:dt=""urn:schemas-microsoft-com:datatypes""><Description dt:dt=""string"">E-Prime Primary Realtime Clock</Description><StartTime><Timestamp dt:dt=""int"">0</Timestamp><DateUtc dt:dt=""string"">2021-04-30T10:54:31Z</DateUtc></StartTime><FrequencyChanges><FrequencyChange><Frequency dt:dt=""r8"">2435566</Frequency><Timestamp dt:dt=""r8"">32896179815</Timestamp><Current dt:dt=""r8"">0</Current><DateUtc dt:dt=""string"">2021-04-30T10:54:31Z</DateUtc></FrequencyChange></FrequencyChanges></Clock>\n";EXP2.2_290421-1000005-1;60.024;1.0.0.341;1;Chronos;-1463275438;Full;3.0.3.80;3.0.3.80;04-30-2021;30/04/2021 10:54;12:54:31;3.0.3.82;2;;2;1;2;TESTVV;Generalbloc;;;;pretest;Chronos;40;1;VV_290421/890.png;4;1;40;-10;blocVVstim;listVVTrial;;;;Chronos;0;;0;-1;968598;200;;0;0;1;1;Chronos;0;0;968798;300;1;495;969293;1;1;Chronos;0;0;969098;0;1;195;969293;;;;;;;;;;;;;;;;;;;
EXP2.2_290421;1000005;1;<ChronosDeviceInfo><FriendlyName>MyChronos</FriendlyName><DeviceIndex>1</DeviceIndex><SerialNumber>CHR-04301-1186</SerialNumber><EBNVersion>3.0.3.80</EBNVersion><FirmwareVersion>1.33</FirmwareVersion><APIVersion>1.33</APIVersion><USBHostControllerVersion>2.0</USBHostControllerVersion><USBConnectionRoute>USB#ROOT_HUB20#4&9bd2e8a&0#{f18a0e88-c30c-11d0-8815-00a0c906bed8} + USB#VID_8087&PID_0024#5&3026c139&0&1#{f18a0e88-c30c-11d0-8815-00a0c906bed8}(1) + VID_2266&PID_0007(7)</USBConnectionRoute></ChronosDeviceInfo>;"<?xml version=""1.0""?>\n<Clock xmlns:dt=""urn:schemas-microsoft-com:datatypes""><Description dt:dt=""string"">E-Prime Primary Realtime Clock</Description><StartTime><Timestamp dt:dt=""int"">0</Timestamp><DateUtc dt:dt=""string"">2021-04-30T10:54:31Z</DateUtc></StartTime><FrequencyChanges><FrequencyChange><Frequency dt:dt=""r8"">2435566</Frequency><Timestamp dt:dt=""r8"">32896179815</Timestamp><Current dt:dt=""r8"">0</Current><DateUtc dt:dt=""string"">2021-04-30T10:54:31Z</DateUtc></FrequencyChange></FrequencyChanges></Clock>\n";EXP2.2_290421-1000005-1;60.024;1.0.0.341;1;Chronos;-1463275438;Full;3.0.3.80;3.0.3.80;04-30-2021;30/04/2021 10:54;12:54:31;3.0.3.82;2;;2;1;2;TESTVV;Generalbloc;;;;pretest;Chronos;41;15;VV_290421/900.png;6;1;41;0;blocVVstim;listVVTrial;;;;Chronos;0;;0;-1;970814;200;;0;0;0;15;Chronos;0;0;971014;300;1;500;971514;0;15;Chronos;0;0;971314;0;1;200;971514;;;;;;;;;;;;;;;;;;;
EXP2.2_290421;1000005;1;<ChronosDeviceInfo><FriendlyName>MyChronos</FriendlyName><DeviceIndex>1</DeviceIndex><SerialNumber>CHR-04301-1186</SerialNumber><EBNVersion>3.0.3.80</EBNVersion><FirmwareVersion>1.33</FirmwareVersion><APIVersion>1.33</APIVersion><USBHostControllerVersion>2.0</USBHostControllerVersion><USBConnectionRoute>USB#ROOT_HUB20#4&9bd2e8a&0#{f18a0e88-c30c-11d0-8815-00a0c906bed8} + USB#VID_8087&PID_0024#5&3026c139&0&1#{f18a0e88-c30c-11d0-8815-00a0c906bed8}(1) + VID_2266&PID_0007(7)</USBConnectionRoute></ChronosDeviceInfo>;"<?xml version=""1.0""?>\n<Clock xmlns:dt=""urn:schemas-microsoft-com:datatypes""><Description dt:dt=""string"">E-Prime Primary Realtime Clock</Description><StartTime><Timestamp dt:dt=""int"">0</Timestamp><DateUtc dt:dt=""string"">2021-04-30T10:54:31Z</DateUtc></StartTime><FrequencyChanges><FrequencyChange><Frequency dt:dt=""r8"">2435566</Frequency><Timestamp dt:dt=""r8"">32896179815</Timestamp><Current dt:dt=""r8"">0</Current><DateUtc dt:dt=""string"">2021-04-30T10:54:31Z</DateUtc></FrequencyChange></FrequencyChanges></Clock>\n";EXP2.2_290421-1000005-1;60.024;1.0.0.341;1;Chronos;-1463275438;Full;3.0.3.80;3.0.3.80;04-30-2021;30/04/2021 10:54;12:54:31;3.0.3.82;2;;2;1;2;TESTVV;Generalbloc;;;;pretest;Chronos;42;15;VV_290421/900.png;6;1;42;0;blocVVstim;listVVTrial;;;;Chronos;0;;0;0;973030;200;;0;0;0;15;Chronos;0;0;973230;300;5;889;974119;0;15;Chronos;0;0;973530;0;5;589;974119;;;;;;;;;;;;;;;;;;;
EXP2.2_290421;1000005;1;<ChronosDeviceInfo><FriendlyName>MyChronos</FriendlyName><DeviceIndex>1</DeviceIndex><SerialNumber>CHR-04301-1186</SerialNumber><EBNVersion>3.0.3.80</EBNVersion><FirmwareVersion>1.33</FirmwareVersion><APIVersion>1.33</APIVersion><USBHostControllerVersion>2.0</USBHostControllerVersion><USBConnectionRoute>USB#ROOT_HUB20#4&9bd2e8a&0#{f18a0e88-c30c-11d0-8815-00a0c906bed8} + USB#VID_8087&PID_0024#5&3026c139&0&1#{f18a0e88-c30c-11d0-8815-00a0c906bed8}(1) + VID_2266&PID_0007(7)</USBConnectionRoute></ChronosDeviceInfo>;"<?xml version=""1.0""?>\n<Clock xmlns:dt=""urn:schemas-microsoft-com:datatypes""><Description dt:dt=""string"">E-Prime Primary Realtime Clock</Description><StartTime><Timestamp dt:dt=""int"">0</Timestamp><DateUtc dt:dt=""string"">2021-04-30T10:54:31Z</DateUtc></StartTime><FrequencyChanges><FrequencyChange><Frequency dt:dt=""r8"">2435566</Frequency><Timestamp dt:dt=""r8"">32896179815</Timestamp><Current dt:dt=""r8"">0</Current><DateUtc dt:dt=""string"">2021-04-30T10:54:31Z</DateUtc></FrequencyChange></FrequencyChanges></Clock>\n";EXP2.2_290421-1000005-1;60.024;1.0.0.341;1;Chronos;-1463275438;Full;3.0.3.80;3.0.3.80;04-30-2021;30/04/2021 10:54;12:54:31;3.0.3.82;2;;2;1;2;TESTVV;Generalbloc;;;;pretest;Chronos;43;15;VV_290421/900.png;6;1;43;0;blocVVstim;listVVTrial;;;;Chronos;0;;1;-1;975645;200;;0;0;0;15;Chronos;1;0;975845;300;5;596;976441;0;15;Chronos;0;0;976145;0;5;296;976441;;;;;;;;;;;;;;;;;;;
EXP2.2_290421;1000005;1;<ChronosDeviceInfo><FriendlyName>MyChronos</FriendlyName><DeviceIndex>1</DeviceIndex><SerialNumber>CHR-04301-1186</SerialNumber><EBNVersion>3.0.3.80</EBNVersion><FirmwareVersion>1.33</FirmwareVersion><APIVersion>1.33</APIVersion><USBHostControllerVersion>2.0</USBHostControllerVersion><USBConnectionRoute>USB#ROOT_HUB20#4&9bd2e8a&0#{f18a0e88-c30c-11d0-8815-00a0c906bed8} + USB#VID_8087&PID_0024#5&3026c139&0&1#{f18a0e88-c30c-11d0-8815-00a0c906bed8}(1) + VID_2266&PID_0007(7)</USBConnectionRoute></ChronosDeviceInfo>;"<?xml version=""1.0""?>\n<Clock xmlns:dt=""urn:schemas-microsoft-com:datatypes""><Description dt:dt=""string"">E-Prime Primary Realtime Clock</Description><StartTime><Timestamp dt:dt=""int"">0</Timestamp><DateUtc dt:dt=""string"">2021-04-30T10:54:31Z</DateUtc></StartTime><FrequencyChanges><FrequencyChange><Frequency dt:dt=""r8"">2435566</Frequency><Timestamp dt:dt=""r8"">32896179815</Timestamp><Current dt:dt=""r8"">0</Current><DateUtc dt:dt=""string"">2021-04-30T10:54:31Z</DateUtc></FrequencyChange></FrequencyChanges></Clock>\n";EXP2.2_290421-1000005-1;60.024;1.0.0.341;1;Chronos;-1463275438;Full;3.0.3.80;3.0.3.80;04-30-2021;30/04/2021 10:54;12:54:31;3.0.3.82;2;;2;1;2;TESTVV;Generalbloc;;;;pretest;Chronos;44;5;VV_290421/920.png;10;1;44;20;blocVVstim;listVVTrial;;;;Chronos;0;;0;-1;977961;200;;0;0;1;5;Chronos;0;0;978161;300;5;324;978485;1;5;Chronos;0;0;978461;0;5;24;978485;;;;;;;;;;;;;;;;;;;
EXP2.2_290421;1000005;1;<ChronosDeviceInfo><FriendlyName>MyChronos</FriendlyName><DeviceIndex>1</DeviceIndex><SerialNumber>CHR-04301-1186</SerialNumber><EBNVersion>3.0.3.80</EBNVersion><FirmwareVersion>1.33</FirmwareVersion><APIVersion>1.33</APIVersion><USBHostControllerVersion>2.0</USBHostControllerVersion><USBConnectionRoute>USB#ROOT_HUB20#4&9bd2e8a&0#{f18a0e88-c30c-11d0-8815-00a0c906bed8} + USB#VID_8087&PID_0024#5&3026c139&0&1#{f18a0e88-c30c-11d0-8815-00a0c906bed8}(1) + VID_2266&PID_0007(7)</USBConnectionRoute></ChronosDeviceInfo>;"<?xml version=""1.0""?>\n<Clock xmlns:dt=""urn:schemas-microsoft-com:datatypes""><Description dt:dt=""string"">E-Prime Primary Realtime Clock</Description><StartTime><Timestamp dt:dt=""int"">0</Timestamp><DateUtc dt:dt=""string"">2021-04-30T10:54:31Z</DateUtc></StartTime><FrequencyChanges><FrequencyChange><Frequency dt:dt=""r8"">2435566</Frequency><Timestamp dt:dt=""r8"">32896179815</Timestamp><Current dt:dt=""r8"">0</Current><DateUtc dt:dt=""string"">2021-04-30T10:54:31Z</DateUtc></FrequencyChange></FrequencyChanges></Clock>\n";EXP2.2_290421-1000005-1;60.024;1.0.0.341;1;Chronos;-1463275438;Full;3.0.3.80;3.0.3.80;04-30-2021;30/04/2021 10:54;12:54:31;3.0.3.82;2;;2;1;2;TESTVV;Generalbloc;;;;pretest;Chronos;45;5;VV_290421/910.png;8;1;45;10;blocVVstim;listVVTrial;;;;Chronos;0;;1;-1;980010;200;;0;0;1;5;Chronos;0;0;980210;0;5;96;980306;0;;;-999999;0;0;0;;0;0;;;;;;;;;;;;;;;;;;;
EXP2.2_290421;1000005;1;<ChronosDeviceInfo><FriendlyName>MyChronos</FriendlyName><DeviceIndex>1</DeviceIndex><SerialNumber>CHR-04301-1186</SerialNumber><EBNVersion>3.0.3.80</EBNVersion><FirmwareVersion>1.33</FirmwareVersion><APIVersion>1.33</APIVersion><USBHostControllerVersion>2.0</USBHostControllerVersion><USBConnectionRoute>USB#ROOT_HUB20#4&9bd2e8a&0#{f18a0e88-c30c-11d0-8815-00a0c906bed8} + USB#VID_8087&PID_0024#5&3026c139&0&1#{f18a0e88-c30c-11d0-8815-00a0c906bed8}(1) + VID_2266&PID_0007(7)</USBConnectionRoute></ChronosDeviceInfo>;"<?xml version=""1.0""?>\n<Clock xmlns:dt=""urn:schemas-microsoft-com:datatypes""><Description dt:dt=""string"">E-Prime Primary Realtime Clock</Description><StartTime><Timestamp dt:dt=""int"">0</Timestamp><DateUtc dt:dt=""string"">2021-04-30T10:54:31Z</DateUtc></StartTime><FrequencyChanges><FrequencyChange><Frequency dt:dt=""r8"">2435566</Frequency><Timestamp dt:dt=""r8"">32896179815</Timestamp><Current dt:dt=""r8"">0</Current><DateUtc dt:dt=""string"">2021-04-30T10:54:31Z</DateUtc></FrequencyChange></FrequencyChanges></Clock>\n";EXP2.2_290421-1000005-1;60.024;1.0.0.341;1;Chronos;-1463275438;Full;3.0.3.80;3.0.3.80;04-30-2021;30/04/2021 10:54;12:54:31;3.0.3.82;2;;2;1;2;TESTVV;Generalbloc;;;;pretest;Chronos;46;1;VV_290421/885.png;3;1;46;-15;blocVVstim;listVVTrial;;;;Chronos;0;;1;-1;981826;200;;0;0;0;1;Chronos;0;0;982026;0;5;123;982149;0;;;-999999;0;0;0;;0;0;;;;;;;;;;;;;;;;;;;
EXP2.2_290421;1000005;1;<ChronosDeviceInfo><FriendlyName>MyChronos</FriendlyName><DeviceIndex>1</DeviceIndex><SerialNumber>CHR-04301-1186</SerialNumber><EBNVersion>3.0.3.80</EBNVersion><FirmwareVersion>1.33</FirmwareVersion><APIVersion>1.33</APIVersion><USBHostControllerVersion>2.0</USBHostControllerVersion><USBConnectionRoute>USB#ROOT_HUB20#4&9bd2e8a&0#{f18a0e88-c30c-11d0-8815-00a0c906bed8} + USB#VID_8087&PID_0024#5&3026c139&0&1#{f18a0e88-c30c-11d0-8815-00a0c906bed8}(1) + VID_2266&PID_0007(7)</USBConnectionRoute></ChronosDeviceInfo>;"<?xml version=""1.0""?>\n<Clock xmlns:dt=""urn:schemas-microsoft-com:datatypes""><Description dt:dt=""string"">E-Prime Primary Realtime Clock</Description><StartTime><Timestamp dt:dt=""int"">0</Timestamp><DateUtc dt:dt=""string"">2021-04-30T10:54:31Z</DateUtc></StartTime><FrequencyChanges><FrequencyChange><Frequency dt:dt=""r8"">2435566</Frequency><Timestamp dt:dt=""r8"">32896179815</Timestamp><Current dt:dt=""r8"">0</Current><DateUtc dt:dt=""string"">2021-04-30T10:54:31Z</DateUtc></FrequencyChange></FrequencyChanges></Clock>\n";EXP2.2_290421-1000005-1;60.024;1.0.0.341;1;Chronos;-1463275438;Full;3.0.3.80;3.0.3.80;04-30-2021;30/04/2021 10:54;12:54:31;3.0.3.82;2;;2;1;2;TESTVV;Generalbloc;;;;pretest;Chronos;47;1;VV_290421/875.png;1;1;47;-25;blocVVstim;listVVTrial;;;;Chronos;0;;0;0;983676;200;;0;0;1;1;Chronos;0;0;983876;0;1;122;983998;0;;;-999999;0;0;0;;0;0;;;;;;;;;;;;;;;;;;;
EXP2.2_290421;1000005;1;<ChronosDeviceInfo><FriendlyName>MyChronos</FriendlyName><DeviceIndex>1</DeviceIndex><SerialNumber>CHR-04301-1186</SerialNumber><EBNVersion>3.0.3.80</EBNVersion><FirmwareVersion>1.33</FirmwareVersion><APIVersion>1.33</APIVersion><USBHostControllerVersion>2.0</USBHostControllerVersion><USBConnectionRoute>USB#ROOT_HUB20#4&9bd2e8a&0#{f18a0e88-c30c-11d0-8815-00a0c906bed8} + USB#VID_8087&PID_0024#5&3026c139&0&1#{f18a0e88-c30c-11d0-8815-00a0c906bed8}(1) + VID_2266&PID_0007(7)</USBConnectionRoute></ChronosDeviceInfo>;"<?xml version=""1.0""?>\n<Clock xmlns:dt=""urn:schemas-microsoft-com:datatypes""><Description dt:dt=""string"">E-Prime Primary Realtime Clock</Description><StartTime><Timestamp dt:dt=""int"">0</Timestamp><DateUtc dt:dt=""string"">2021-04-30T10:54:31Z</DateUtc></StartTime><FrequencyChanges><FrequencyChange><Frequency dt:dt=""r8"">2435566</Frequency><Timestamp dt:dt=""r8"">32896179815</Timestamp><Current dt:dt=""r8"">0</Current><DateUtc dt:dt=""string"">2021-04-30T10:54:31Z</DateUtc></FrequencyChange></FrequencyChanges></Clock>\n";EXP2.2_290421-1000005-1;60.024;1.0.0.341;1;Chronos;-1463275438;Full;3.0.3.80;3.0.3.80;04-30-2021;30/04/2021 10:54;12:54:31;3.0.3.82;2;;2;1;2;TESTVV;Generalbloc;;;;pretest;Chronos;48;5;VV_290421/915.png;9;1;48;15;blocVVstim;listVVTrial;;;;Chronos;0;;0;-1;985525;200;;0;0;1;5;Chronos;0;0;985725;300;5;479;986204;1;5;Chronos;0;0;986025;0;5;179;986204;;;;;;;;;;;;;;;;;;;
EXP2.2_290421;1000005;1;<ChronosDeviceInfo><FriendlyName>MyChronos</FriendlyName><DeviceIndex>1</DeviceIndex><SerialNumber>CHR-04301-1186</SerialNumber><EBNVersion>3.0.3.80</EBNVersion><FirmwareVersion>1.33</FirmwareVersion><APIVersion>1.33</APIVersion><USBHostControllerVersion>2.0</USBHostControllerVersion><USBConnectionRoute>USB#ROOT_HUB20#4&9bd2e8a&0#{f18a0e88-c30c-11d0-8815-00a0c906bed8} + USB#VID_8087&PID_0024#5&3026c139&0&1#{f18a0e88-c30c-11d0-8815-00a0c906bed8}(1) + VID_2266&PID_0007(7)</USBConnectionRoute></ChronosDeviceInfo>;"<?xml version=""1.0""?>\n<Clock xmlns:dt=""urn:schemas-microsoft-com:datatypes""><Description dt:dt=""string"">E-Prime Primary Realtime Clock</Description><StartTime><Timestamp dt:dt=""int"">0</Timestamp><DateUtc dt:dt=""string"">2021-04-30T10:54:31Z</DateUtc></StartTime><FrequencyChanges><FrequencyChange><Frequency dt:dt=""r8"">2435566</Frequency><Timestamp dt:dt=""r8"">32896179815</Timestamp><Current dt:dt=""r8"">0</Current><DateUtc dt:dt=""string"">2021-04-30T10:54:31Z</DateUtc></FrequencyChange></FrequencyChanges></Clock>\n";EXP2.2_290421-1000005-1;60.024;1.0.0.341;1;Chronos;-1463275438;Full;3.0.3.80;3.0.3.80;04-30-2021;30/04/2021 10:54;12:54:31;3.0.3.82;2;;2;1;2;TESTVV;Generalbloc;;;;pretest;Chronos;49;1;VV_290421/890.png;4;1;49;-10;blocVVstim;listVVTrial;;;;Chronos;0;;0;-1;987724;200;;0;0;0;1;Chronos;0;0;987924;300;5;785;988709;0;1;Chronos;0;0;988224;0;5;485;988709;;;;;;;;;;;;;;;;;;;
EXP2.2_290421;1000005;1;<ChronosDeviceInfo><FriendlyName>MyChronos</FriendlyName><DeviceIndex>1</DeviceIndex><SerialNumber>CHR-04301-1186</SerialNumber><EBNVersion>3.0.3.80</EBNVersion><FirmwareVersion>1.33</FirmwareVersion><APIVersion>1.33</APIVersion><USBHostControllerVersion>2.0</USBHostControllerVersion><USBConnectionRoute>USB#ROOT_HUB20#4&9bd2e8a&0#{f18a0e88-c30c-11d0-8815-00a0c906bed8} + USB#VID_8087&PID_0024#5&3026c139&0&1#{f18a0e88-c30c-11d0-8815-00a0c906bed8}(1) + VID_2266&PID_0007(7)</USBConnectionRoute></ChronosDeviceInfo>;"<?xml version=""1.0""?>\n<Clock xmlns:dt=""urn:schemas-microsoft-com:datatypes""><Description dt:dt=""string"">E-Prime Primary Realtime Clock</Description><StartTime><Timestamp dt:dt=""int"">0</Timestamp><DateUtc dt:dt=""string"">2021-04-30T10:54:31Z</DateUtc></StartTime><FrequencyChanges><FrequencyChange><Frequency dt:dt=""r8"">2435566</Frequency><Timestamp dt:dt=""r8"">32896179815</Timestamp><Current dt:dt=""r8"">0</Current><DateUtc dt:dt=""string"">2021-04-30T10:54:31Z</DateUtc></FrequencyChange></FrequencyChanges></Clock>\n";EXP2.2_290421-1000005-1;60.024;1.0.0.341;1;Chronos;-1463275438;Full;3.0.3.80;3.0.3.80;04-30-2021;30/04/2021 10:54;12:54:31;3.0.3.82;2;;2;1;2;TESTVV;Generalbloc;;;;pretest;Chronos;50;1;VV_290421/885.png;3;1;50;-15;blocVVstim;listVVTrial;;;;Chronos;0;;0;-1;990223;200;;0;0;1;1;Chronos;0;0;990423;300;1;492;990915;1;1;Chronos;0;0;990723;0;1;192;990915;;;;;;;;;;;;;;;;;;;
EXP2.2_290421;1000005;1;<ChronosDeviceInfo><FriendlyName>MyChronos</FriendlyName><DeviceIndex>1</DeviceIndex><SerialNumber>CHR-04301-1186</SerialNumber><EBNVersion>3.0.3.80</EBNVersion><FirmwareVersion>1.33</FirmwareVersion><APIVersion>1.33</APIVersion><USBHostControllerVersion>2.0</USBHostControllerVersion><USBConnectionRoute>USB#ROOT_HUB20#4&9bd2e8a&0#{f18a0e88-c30c-11d0-8815-00a0c906bed8} + USB#VID_8087&PID_0024#5&3026c139&0&1#{f18a0e88-c30c-11d0-8815-00a0c906bed8}(1) + VID_2266&PID_0007(7)</USBConnectionRoute></ChronosDeviceInfo>;"<?xml version=""1.0""?>\n<Clock xmlns:dt=""urn:schemas-microsoft-com:datatypes""><Description dt:dt=""string"">E-Prime Primary Realtime Clock</Description><StartTime><Timestamp dt:dt=""int"">0</Timestamp><DateUtc dt:dt=""string"">2021-04-30T10:54:31Z</DateUtc></StartTime><FrequencyChanges><FrequencyChange><Frequency dt:dt=""r8"">2435566</Frequency><Timestamp dt:dt=""r8"">32896179815</Timestamp><Current dt:dt=""r8"">0</Current><DateUtc dt:dt=""string"">2021-04-30T10:54:31Z</DateUtc></FrequencyChange></FrequencyChanges></Clock>\n";EXP2.2_290421-1000005-1;60.024;1.0.0.341;1;Chronos;-1463275438;Full;3.0.3.80;3.0.3.80;04-30-2021;30/04/2021 10:54;12:54:31;3.0.3.82;2;;2;1;2;TESTVV;Generalbloc;;;;pretest;Chronos;51;1;VV_290421/880.png;2;1;51;-20;blocVVstim;listVVTrial;;;;Chronos;0;;0;-1;992439;200;;0;0;0;1;Chronos;0;0;992639;0;5;206;992845;0;;;-999999;0;0;0;;0;0;;;;;;;;;;;;;;;;;;;
EXP2.2_290421;1000005;1;<ChronosDeviceInfo><FriendlyName>MyChronos</FriendlyName><DeviceIndex>1</DeviceIndex><SerialNumber>CHR-04301-1186</SerialNumber><EBNVersion>3.0.3.80</EBNVersion><FirmwareVersion>1.33</FirmwareVersion><APIVersion>1.33</APIVersion><USBHostControllerVersion>2.0</USBHostControllerVersion><USBConnectionRoute>USB#ROOT_HUB20#4&9bd2e8a&0#{f18a0e88-c30c-11d0-8815-00a0c906bed8} + USB#VID_8087&PID_0024#5&3026c139&0&1#{f18a0e88-c30c-11d0-8815-00a0c906bed8}(1) + VID_2266&PID_0007(7)</USBConnectionRoute></ChronosDeviceInfo>;"<?xml version=""1.0""?>\n<Clock xmlns:dt=""urn:schemas-microsoft-com:datatypes""><Description dt:dt=""string"">E-Prime Primary Realtime Clock</Description><StartTime><Timestamp dt:dt=""int"">0</Timestamp><DateUtc dt:dt=""string"">2021-04-30T10:54:31Z</DateUtc></StartTime><FrequencyChanges><FrequencyChange><Frequency dt:dt=""r8"">2435566</Frequency><Timestamp dt:dt=""r8"">32896179815</Timestamp><Current dt:dt=""r8"">0</Current><DateUtc dt:dt=""string"">2021-04-30T10:54:31Z</DateUtc></FrequencyChange></FrequencyChanges></Clock>\n";EXP2.2_290421-1000005-1;60.024;1.0.0.341;1;Chronos;-1463275438;Full;3.0.3.80;3.0.3.80;04-30-2021;30/04/2021 10:54;12:54:31;3.0.3.82;2;;2;1;2;TESTVV;Generalbloc;;;;pretest;Chronos;52;1;VV_290421/880.png;2;1;52;-20;blocVVstim;listVVTrial;;;;Chronos;0;;0;0;994372;199;;0;0;1;1;Chronos;1;-1;994571;300;1;705;995276;1;1;Chronos;0;0;994871;0;1;405;995276;;;;;;;;;;;;;;;;;;;
EXP2.2_290421;1000005;1;<ChronosDeviceInfo><FriendlyName>MyChronos</FriendlyName><DeviceIndex>1</DeviceIndex><SerialNumber>CHR-04301-1186</SerialNumber><EBNVersion>3.0.3.80</EBNVersion><FirmwareVersion>1.33</FirmwareVersion><APIVersion>1.33</APIVersion><USBHostControllerVersion>2.0</USBHostControllerVersion><USBConnectionRoute>USB#ROOT_HUB20#4&9bd2e8a&0#{f18a0e88-c30c-11d0-8815-00a0c906bed8} + USB#VID_8087&PID_0024#5&3026c139&0&1#{f18a0e88-c30c-11d0-8815-00a0c906bed8}(1) + VID_2266&PID_0007(7)</USBConnectionRoute></ChronosDeviceInfo>;"<?xml version=""1.0""?>\n<Clock xmlns:dt=""urn:schemas-microsoft-com:datatypes""><Description dt:dt=""string"">E-Prime Primary Realtime Clock</Description><StartTime><Timestamp dt:dt=""int"">0</Timestamp><DateUtc dt:dt=""string"">2021-04-30T10:54:31Z</DateUtc></StartTime><FrequencyChanges><FrequencyChange><Frequency dt:dt=""r8"">2435566</Frequency><Timestamp dt:dt=""r8"">32896179815</Timestamp><Current dt:dt=""r8"">0</Current><DateUtc dt:dt=""string"">2021-04-30T10:54:31Z</DateUtc></FrequencyChange></FrequencyChanges></Clock>\n";EXP2.2_290421-1000005-1;60.024;1.0.0.341;1;Chronos;-1463275438;Full;3.0.3.80;3.0.3.80;04-30-2021;30/04/2021 10:54;12:54:31;3.0.3.82;2;;2;1;2;TESTVV;Generalbloc;;;;pretest;Chronos;53;5;VV_290421/915.png;9;1;53;15;blocVVstim;listVVTrial;;;;Chronos;0;;0;-1;996787;200;;0;0;1;5;Chronos;0;0;996987;300;5;492;997479;1;5;Chronos;0;0;997287;0;5;192;997479;;;;;;;;;;;;;;;;;;;
EXP2.2_290421;1000005;1;<ChronosDeviceInfo><FriendlyName>MyChronos</FriendlyName><DeviceIndex>1</DeviceIndex><SerialNumber>CHR-04301-1186</SerialNumber><EBNVersion>3.0.3.80</EBNVersion><FirmwareVersion>1.33</FirmwareVersion><APIVersion>1.33</APIVersion><USBHostControllerVersion>2.0</USBHostControllerVersion><USBConnectionRoute>USB#ROOT_HUB20#4&9bd2e8a&0#{f18a0e88-c30c-11d0-8815-00a0c906bed8} + USB#VID_8087&PID_0024#5&3026c139&0&1#{f18a0e88-c30c-11d0-8815-00a0c906bed8}(1) + VID_2266&PID_0007(7)</USBConnectionRoute></ChronosDeviceInfo>;"<?xml version=""1.0""?>\n<Clock xmlns:dt=""urn:schemas-microsoft-com:datatypes""><Description dt:dt=""string"">E-Prime Primary Realtime Clock</Description><StartTime><Timestamp dt:dt=""int"">0</Timestamp><DateUtc dt:dt=""string"">2021-04-30T10:54:31Z</DateUtc></StartTime><FrequencyChanges><FrequencyChange><Frequency dt:dt=""r8"">2435566</Frequency><Timestamp dt:dt=""r8"">32896179815</Timestamp><Current dt:dt=""r8"">0</Current><DateUtc dt:dt=""string"">2021-04-30T10:54:31Z</DateUtc></FrequencyChange></FrequencyChanges></Clock>\n";EXP2.2_290421-1000005-1;60.024;1.0.0.341;1;Chronos;-1463275438;Full;3.0.3.80;3.0.3.80;04-30-2021;30/04/2021 10:54;12:54:31;3.0.3.82;2;;2;1;2;TESTVV;Generalbloc;;;;pretest;Chronos;54;1;VV_290421/895.png;5;1;54;-5;blocVVstim;listVVTrial;;;;Chronos;0;;0;-1;999003;200;;0;0;0;1;Chronos;0;0;999203;300;5;1031;1000234;0;1;Chronos;0;0;999503;0;5;731;1000234;;;;;;;;;;;;;;;;;;;
EXP2.2_290421;1000005;1;<ChronosDeviceInfo><FriendlyName>MyChronos</FriendlyName><DeviceIndex>1</DeviceIndex><SerialNumber>CHR-04301-1186</SerialNumber><EBNVersion>3.0.3.80</EBNVersion><FirmwareVersion>1.33</FirmwareVersion><APIVersion>1.33</APIVersion><USBHostControllerVersion>2.0</USBHostControllerVersion><USBConnectionRoute>USB#ROOT_HUB20#4&9bd2e8a&0#{f18a0e88-c30c-11d0-8815-00a0c906bed8} + USB#VID_8087&PID_0024#5&3026c139&0&1#{f18a0e88-c30c-11d0-8815-00a0c906bed8}(1) + VID_2266&PID_0007(7)</USBConnectionRoute></ChronosDeviceInfo>;"<?xml version=""1.0""?>\n<Clock xmlns:dt=""urn:schemas-microsoft-com:datatypes""><Description dt:dt=""string"">E-Prime Primary Realtime Clock</Description><StartTime><Timestamp dt:dt=""int"">0</Timestamp><DateUtc dt:dt=""string"">2021-04-30T10:54:31Z</DateUtc></StartTime><FrequencyChanges><FrequencyChange><Frequency dt:dt=""r8"">2435566</Frequency><Timestamp dt:dt=""r8"">32896179815</Timestamp><Current dt:dt=""r8"">0</Current><DateUtc dt:dt=""string"">2021-04-30T10:54:31Z</DateUtc></FrequencyChange></FrequencyChanges></Clock>\n";EXP2.2_290421-1000005-1;60.024;1.0.0.341;1;Chronos;-1463275438;Full;3.0.3.80;3.0.3.80;04-30-2021;30/04/2021 10:54;12:54:31;3.0.3.82;2;;2;1;2;TESTVV;Generalbloc;;;;pretest;Chronos;55;1;VV_290421/895.png;5;1;55;-5;blocVVstim;listVVTrial;;;;Chronos;0;;0;-1;1001752;200;;0;0;0;1;Chronos;0;0;1001952;300;5;380;1002332;0;1;Chronos;0;0;1002252;0;5;80;1002332;;;;;;;;;;;;;;;;;;;
EXP2.2_290421;1000005;1;<ChronosDeviceInfo><FriendlyName>MyChronos</FriendlyName><DeviceIndex>1</DeviceIndex><SerialNumber>CHR-04301-1186</SerialNumber><EBNVersion>3.0.3.80</EBNVersion><FirmwareVersion>1.33</FirmwareVersion><APIVersion>1.33</APIVersion><USBHostControllerVersion>2.0</USBHostControllerVersion><USBConnectionRoute>USB#ROOT_HUB20#4&9bd2e8a&0#{f18a0e88-c30c-11d0-8815-00a0c906bed8} + USB#VID_8087&PID_0024#5&3026c139&0&1#{f18a0e88-c30c-11d0-8815-00a0c906bed8}(1) + VID_2266&PID_0007(7)</USBConnectionRoute></ChronosDeviceInfo>;"<?xml version=""1.0""?>\n<Clock xmlns:dt=""urn:schemas-microsoft-com:datatypes""><Description dt:dt=""string"">E-Prime Primary Realtime Clock</Description><StartTime><Timestamp dt:dt=""int"">0</Timestamp><DateUtc dt:dt=""string"">2021-04-30T10:54:31Z</DateUtc></StartTime><FrequencyChanges><FrequencyChange><Frequency dt:dt=""r8"">2435566</Frequency><Timestamp dt:dt=""r8"">32896179815</Timestamp><Current dt:dt=""r8"">0</Current><DateUtc dt:dt=""string"">2021-04-30T10:54:31Z</DateUtc></FrequencyChange></FrequencyChanges></Clock>\n";EXP2.2_290421-1000005-1;60.024;1.0.0.341;1;Chronos;-1463275438;Full;3.0.3.80;3.0.3.80;04-30-2021;30/04/2021 10:54;12:54:31;3.0.3.82;2;;2;1;2;TESTVV;Generalbloc;;;;pretest;Chronos;56;5;VV_290421/910.png;8;1;56;10;blocVVstim;listVVTrial;;;;Chronos;0;;0;-1;1003851;200;;0;0;1;5;Chronos;0;0;1004051;300;5;486;1004537;1;5;Chronos;0;0;1004351;0;5;186;1004537;;;;;;;;;;;;;;;;;;;
EXP2.2_290421;1000005;1;<ChronosDeviceInfo><FriendlyName>MyChronos</FriendlyName><DeviceIndex>1</DeviceIndex><SerialNumber>CHR-04301-1186</SerialNumber><EBNVersion>3.0.3.80</EBNVersion><FirmwareVersion>1.33</FirmwareVersion><APIVersion>1.33</APIVersion><USBHostControllerVersion>2.0</USBHostControllerVersion><USBConnectionRoute>USB#ROOT_HUB20#4&9bd2e8a&0#{f18a0e88-c30c-11d0-8815-00a0c906bed8} + USB#VID_8087&PID_0024#5&3026c139&0&1#{f18a0e88-c30c-11d0-8815-00a0c906bed8}(1) + VID_2266&PID_0007(7)</USBConnectionRoute></ChronosDeviceInfo>;"<?xml version=""1.0""?>\n<Clock xmlns:dt=""urn:schemas-microsoft-com:datatypes""><Description dt:dt=""string"">E-Prime Primary Realtime Clock</Description><StartTime><Timestamp dt:dt=""int"">0</Timestamp><DateUtc dt:dt=""string"">2021-04-30T10:54:31Z</DateUtc></StartTime><FrequencyChanges><FrequencyChange><Frequency dt:dt=""r8"">2435566</Frequency><Timestamp dt:dt=""r8"">32896179815</Timestamp><Current dt:dt=""r8"">0</Current><DateUtc dt:dt=""string"">2021-04-30T10:54:31Z</DateUtc></FrequencyChange></FrequencyChanges></Clock>\n";EXP2.2_290421-1000005-1;60.024;1.0.0.341;1;Chronos;-1463275438;Full;3.0.3.80;3.0.3.80;04-30-2021;30/04/2021 10:54;12:54:31;3.0.3.82;2;;2;1;2;TESTVV;Generalbloc;;;;pretest;Chronos;57;5;VV_290421/925.png;11;1;57;25;blocVVstim;listVVTrial;;;;Chronos;0;;0;-1;1006067;200;;0;0;1;5;Chronos;0;0;1006267;300;5;411;1006678;1;5;Chronos;0;0;1006567;0;5;111;1006678;;;;;;;;;;;;;;;;;;;
EXP2.2_290421;1000005;1;<ChronosDeviceInfo><FriendlyName>MyChronos</FriendlyName><DeviceIndex>1</DeviceIndex><SerialNumber>CHR-04301-1186</SerialNumber><EBNVersion>3.0.3.80</EBNVersion><FirmwareVersion>1.33</FirmwareVersion><APIVersion>1.33</APIVersion><USBHostControllerVersion>2.0</USBHostControllerVersion><USBConnectionRoute>USB#ROOT_HUB20#4&9bd2e8a&0#{f18a0e88-c30c-11d0-8815-00a0c906bed8} + USB#VID_8087&PID_0024#5&3026c139&0&1#{f18a0e88-c30c-11d0-8815-00a0c906bed8}(1) + VID_2266&PID_0007(7)</USBConnectionRoute></ChronosDeviceInfo>;"<?xml version=""1.0""?>\n<Clock xmlns:dt=""urn:schemas-microsoft-com:datatypes""><Description dt:dt=""string"">E-Prime Primary Realtime Clock</Description><StartTime><Timestamp dt:dt=""int"">0</Timestamp><DateUtc dt:dt=""string"">2021-04-30T10:54:31Z</DateUtc></StartTime><FrequencyChanges><FrequencyChange><Frequency dt:dt=""r8"">2435566</Frequency><Timestamp dt:dt=""r8"">32896179815</Timestamp><Current dt:dt=""r8"">0</Current><DateUtc dt:dt=""string"">2021-04-30T10:54:31Z</DateUtc></FrequencyChange></FrequencyChanges></Clock>\n";EXP2.2_290421-1000005-1;60.024;1.0.0.341;1;Chronos;-1463275438;Full;3.0.3.80;3.0.3.80;04-30-2021;30/04/2021 10:54;12:54:31;3.0.3.82;2;;2;1;2;TESTVV;Generalbloc;;;;pretest;Chronos;58;1;VV_290421/895.png;5;1;58;-5;blocVVstim;listVVTrial;;;;Chronos;0;;0;0;1008200;199;;0;0;0;1;Chronos;1;-1;1008399;300;5;773;1009172;0;1;Chronos;1;0;1008699;0;5;473;1009172;;;;;;;;;;;;;;;;;;;
EXP2.2_290421;1000005;1;<ChronosDeviceInfo><FriendlyName>MyChronos</FriendlyName><DeviceIndex>1</DeviceIndex><SerialNumber>CHR-04301-1186</SerialNumber><EBNVersion>3.0.3.80</EBNVersion><FirmwareVersion>1.33</FirmwareVersion><APIVersion>1.33</APIVersion><USBHostControllerVersion>2.0</USBHostControllerVersion><USBConnectionRoute>USB#ROOT_HUB20#4&9bd2e8a&0#{f18a0e88-c30c-11d0-8815-00a0c906bed8} + USB#VID_8087&PID_0024#5&3026c139&0&1#{f18a0e88-c30c-11d0-8815-00a0c906bed8}(1) + VID_2266&PID_0007(7)</USBConnectionRoute></ChronosDeviceInfo>;"<?xml version=""1.0""?>\n<Clock xmlns:dt=""urn:schemas-microsoft-com:datatypes""><Description dt:dt=""string"">E-Prime Primary Realtime Clock</Description><StartTime><Timestamp dt:dt=""int"">0</Timestamp><DateUtc dt:dt=""string"">2021-04-30T10:54:31Z</DateUtc></StartTime><FrequencyChanges><FrequencyChange><Frequency dt:dt=""r8"">2435566</Frequency><Timestamp dt:dt=""r8"">32896179815</Timestamp><Current dt:dt=""r8"">0</Current><DateUtc dt:dt=""string"">2021-04-30T10:54:31Z</DateUtc></FrequencyChange></FrequencyChanges></Clock>\n";EXP2.2_290421-1000005-1;60.024;1.0.0.341;1;Chronos;-1463275438;Full;3.0.3.80;3.0.3.80;04-30-2021;30/04/2021 10:54;12:54:31;3.0.3.82;2;;2;1;2;TESTVV;Generalbloc;;;;pretest;Chronos;59;5;VV_290421/910.png;8;1;59;10;blocVVstim;listVVTrial;;;;Chronos;0;;0;0;1010699;200;;0;0;1;5;Chronos;0;0;1010899;299;5;411;1011310;1;5;Chronos;1;-1;1011198;0;5;112;1011310;;;;;;;;;;;;;;;;;;;
EXP2.2_290421;1000005;1;<ChronosDeviceInfo><FriendlyName>MyChronos</FriendlyName><DeviceIndex>1</DeviceIndex><SerialNumber>CHR-04301-1186</SerialNumber><EBNVersion>3.0.3.80</EBNVersion><FirmwareVersion>1.33</FirmwareVersion><APIVersion>1.33</APIVersion><USBHostControllerVersion>2.0</USBHostControllerVersion><USBConnectionRoute>USB#ROOT_HUB20#4&9bd2e8a&0#{f18a0e88-c30c-11d0-8815-00a0c906bed8} + USB#VID_8087&PID_0024#5&3026c139&0&1#{f18a0e88-c30c-11d0-8815-00a0c906bed8}(1) + VID_2266&PID_0007(7)</USBConnectionRoute></ChronosDeviceInfo>;"<?xml version=""1.0""?>\n<Clock xmlns:dt=""urn:schemas-microsoft-com:datatypes""><Description dt:dt=""string"">E-Prime Primary Realtime Clock</Description><StartTime><Timestamp dt:dt=""int"">0</Timestamp><DateUtc dt:dt=""string"">2021-04-30T10:54:31Z</DateUtc></StartTime><FrequencyChanges><FrequencyChange><Frequency dt:dt=""r8"">2435566</Frequency><Timestamp dt:dt=""r8"">32896179815</Timestamp><Current dt:dt=""r8"">0</Current><DateUtc dt:dt=""string"">2021-04-30T10:54:31Z</DateUtc></FrequencyChange></FrequencyChanges></Clock>\n";EXP2.2_290421-1000005-1;60.024;1.0.0.341;1;Chronos;-1463275438;Full;3.0.3.80;3.0.3.80;04-30-2021;30/04/2021 10:54;12:54:31;3.0.3.82;2;;2;1;2;TESTVV;Generalbloc;;;;pretest;Chronos;60;1;VV_290421/880.png;2;1;60;-20;blocVVstim;listVVTrial;;;;Chronos;0;;0;-1;1012831;200;;0;0;1;1;Chronos;0;0;1013031;300;1;480;1013511;1;1;Chronos;0;0;1013331;0;1;180;1013511;;;;;;;;;;;;;;;;;;;
EXP2.2_290421;1000005;1;<ChronosDeviceInfo><FriendlyName>MyChronos</FriendlyName><DeviceIndex>1</DeviceIndex><SerialNumber>CHR-04301-1186</SerialNumber><EBNVersion>3.0.3.80</EBNVersion><FirmwareVersion>1.33</FirmwareVersion><APIVersion>1.33</APIVersion><USBHostControllerVersion>2.0</USBHostControllerVersion><USBConnectionRoute>USB#ROOT_HUB20#4&9bd2e8a&0#{f18a0e88-c30c-11d0-8815-00a0c906bed8} + USB#VID_8087&PID_0024#5&3026c139&0&1#{f18a0e88-c30c-11d0-8815-00a0c906bed8}(1) + VID_2266&PID_0007(7)</USBConnectionRoute></ChronosDeviceInfo>;"<?xml version=""1.0""?>\n<Clock xmlns:dt=""urn:schemas-microsoft-com:datatypes""><Description dt:dt=""string"">E-Prime Primary Realtime Clock</Description><StartTime><Timestamp dt:dt=""int"">0</Timestamp><DateUtc dt:dt=""string"">2021-04-30T10:54:31Z</DateUtc></StartTime><FrequencyChanges><FrequencyChange><Frequency dt:dt=""r8"">2435566</Frequency><Timestamp dt:dt=""r8"">32896179815</Timestamp><Current dt:dt=""r8"">0</Current><DateUtc dt:dt=""string"">2021-04-30T10:54:31Z</DateUtc></FrequencyChange></FrequencyChanges></Clock>\n";EXP2.2_290421-1000005-1;60.024;1.0.0.341;1;Chronos;-1463275438;Full;3.0.3.80;3.0.3.80;04-30-2021;30/04/2021 10:54;12:54:31;3.0.3.82;2;;2;1;2;TESTVV;Generalbloc;;;;pretest;Chronos;61;1;VV_290421/885.png;3;1;61;-15;blocVVstim;listVVTrial;;;;Chronos;0;;0;-1;1015030;200;;0;0;0;1;Chronos;0;0;1015230;300;5;697;1015927;0;1;Chronos;0;0;1015530;0;5;397;1015927;;;;;;;;;;;;;;;;;;;
EXP2.2_290421;1000005;1;<ChronosDeviceInfo><FriendlyName>MyChronos</FriendlyName><DeviceIndex>1</DeviceIndex><SerialNumber>CHR-04301-1186</SerialNumber><EBNVersion>3.0.3.80</EBNVersion><FirmwareVersion>1.33</FirmwareVersion><APIVersion>1.33</APIVersion><USBHostControllerVersion>2.0</USBHostControllerVersion><USBConnectionRoute>USB#ROOT_HUB20#4&9bd2e8a&0#{f18a0e88-c30c-11d0-8815-00a0c906bed8} + USB#VID_8087&PID_0024#5&3026c139&0&1#{f18a0e88-c30c-11d0-8815-00a0c906bed8}(1) + VID_2266&PID_0007(7)</USBConnectionRoute></ChronosDeviceInfo>;"<?xml version=""1.0""?>\n<Clock xmlns:dt=""urn:schemas-microsoft-com:datatypes""><Description dt:dt=""string"">E-Prime Primary Realtime Clock</Description><StartTime><Timestamp dt:dt=""int"">0</Timestamp><DateUtc dt:dt=""string"">2021-04-30T10:54:31Z</DateUtc></StartTime><FrequencyChanges><FrequencyChange><Frequency dt:dt=""r8"">2435566</Frequency><Timestamp dt:dt=""r8"">32896179815</Timestamp><Current dt:dt=""r8"">0</Current><DateUtc dt:dt=""string"">2021-04-30T10:54:31Z</DateUtc></FrequencyChange></FrequencyChanges></Clock>\n";EXP2.2_290421-1000005-1;60.024;1.0.0.341;1;Chronos;-1463275438;Full;3.0.3.80;3.0.3.80;04-30-2021;30/04/2021 10:54;12:54:31;3.0.3.82;2;;2;1;2;TESTVV;Generalbloc;;;;pretest;Chronos;62;5;VV_290421/915.png;9;1;62;15;blocVVstim;listVVTrial;;;;Chronos;0;;0;-1;1017446;200;;0;0;1;5;Chronos;0;0;1017646;300;5;829;1018475;1;5;Chronos;0;0;1017946;0;5;529;1018475;;;;;;;;;;;;;;;;;;;
