ExperimentName;Subject;Session;calibrage.DEVICE[Session];Chronos.BoxInfo;Clock.Information;DataFile.Basename;Display.RefreshRate;ExperimentVersion;Group;Hello.DEVICE;RandomSeed;RuntimeCapabilities;RuntimeVersion;RuntimeVersionExpected;SessionDate;SessionStartDateTimeUtc;SessionTime;StudioVersion;Block;calibrage.DEVICE[Block];EndTraining.DEVICE;Generalbloc;Generalbloc.Cycle;Generalbloc.Sample;Procedure[Block];Running[Block];TextDisplay1.DEVICE;TextDisplay2.DEVICE;TextTraining.DEVICE;time;VVInst.DEVICE[Block];Trial;correct;image;listVVTrial;listVVTrial.Cycle;listVVTrial.Sample;offset;Procedure[Trial];Running[Trial];SpatialTaskTraining;SpatialTaskTraining.Cycle;SpatialTaskTraining.Sample;VVInst.DEVICE[Trial];vvstimnoresp.ACC;vvstimnoresp.CRESP;vvstimnoresp.DurationError;vvstimnoresp.OnsetDelay;vvstimnoresp.OnsetTime;vvstimnoresp.OnsetToOnsetTime;vvstimnoresp.RESP;vvstimnoresp.RT;vvstimnoresp.RTTime;vvstimresp1.ACC;vvstimresp1.CRESP;vvstimresp1.DEVICE;vvstimresp1.DurationError;vvstimresp1.OnsetDelay;vvstimresp1.OnsetTime;vvstimresp1.OnsetToOnsetTime;vvstimresp1.RESP;vvstimresp1.RT;vvstimresp1.RTTime;vvstimresp2.ACC;vvstimresp2.CRESP;vvstimresp2.DEVICE;vvstimresp2.DurationError;vvstimresp2.OnsetDelay;vvstimresp2.OnsetTime;vvstimresp2.OnsetToOnsetTime;vvstimresp2.RESP;vvstimresp2.RT;vvstimresp2.RTTime;SubTrial;LISTVVRANDOM1;LISTVVRANDOM1.Cycle;LISTVVRANDOM1.Sample;LISTVVRANDOM2;Procedure[SubTrial];Running[SubTrial];VVR;VVRANDOM;VVRANDOMRESP.ACC;VVRANDOMRESP.CRESP;VVRANDOMRESP.DEVICE;VVRANDOMRESP.DurationError;VVRANDOMRESP.OnsetDelay;VVRANDOMRESP.OnsetTime;VVRANDOMRESP.OnsetToOnsetTime;VVRANDOMRESP.RESP;VVRANDOMRESP.RT;VVRANDOMRESP.RTTime
EXP2.2_290421;10006;1;Chronos;<ChronosDeviceInfo><FriendlyName>MyChronos</FriendlyName><DeviceIndex>1</DeviceIndex><SerialNumber>CHR-04301-1186</SerialNumber><EBNVersion>3.0.3.80</EBNVersion><FirmwareVersion>1.33</FirmwareVersion><APIVersion>1.33</APIVersion><USBHostControllerVersion>2.0</USBHostControllerVersion><USBConnectionRoute>USB#ROOT_HUB20#4&9bd2e8a&0#{f18a0e88-c30c-11d0-8815-00a0c906bed8} + USB#VID_8087&PID_0024#5&3026c139&0&1#{f18a0e88-c30c-11d0-8815-00a0c906bed8}(1) + VID_2266&PID_0007(7)</USBConnectionRoute></ChronosDeviceInfo>;"<?xml version=""1.0""?>\n<Clock xmlns:dt=""urn:schemas-microsoft-com:datatypes""><Description dt:dt=""string"">E-Prime Primary Realtime Clock</Description><StartTime><Timestamp dt:dt=""int"">0</Timestamp><DateUtc dt:dt=""string"">2021-04-30T12:53:01Z</DateUtc></StartTime><FrequencyChanges><FrequencyChange><Frequency dt:dt=""r8"">2435595</Frequency><Timestamp dt:dt=""r8"">1165029495</Timestamp><Current dt:dt=""r8"">0</Current><DateUtc dt:dt=""string"">2021-04-30T12:53:01Z</DateUtc></FrequencyChange></FrequencyChanges></Clock>\n";EXP2.2_290421-10006-1;60.024;1.0.0.345;1;Chronos;1165484236;Full;3.0.3.80;3.0.3.80;04-30-2021;30/04/2021 12:53;14:53:01;3.0.3.82;1;Chronos;Chronos;1;1;1;Training;Generalbloc;;;Chronos;pretest;;1;;;;;;;TRAININGVV;SpatialTaskTraining;1;1;1;Chronos;;;;;;;;;;;;;;;;;;;;;;;;;;;;;;1;1;1;1;1;blocVVstimTraining;LISTVVRANDOM1;VV_290421/875.png;VV_290421/880.png;0;;Chronos;-999999;0;1036002;0;5;2016;1038018
EXP2.2_290421;10006;1;Chronos;<ChronosDeviceInfo><FriendlyName>MyChronos</FriendlyName><DeviceIndex>1</DeviceIndex><SerialNumber>CHR-04301-1186</SerialNumber><EBNVersion>3.0.3.80</EBNVersion><FirmwareVersion>1.33</FirmwareVersion><APIVersion>1.33</APIVersion><USBHostControllerVersion>2.0</USBHostControllerVersion><USBConnectionRoute>USB#ROOT_HUB20#4&9bd2e8a&0#{f18a0e88-c30c-11d0-8815-00a0c906bed8} + USB#VID_8087&PID_0024#5&3026c139&0&1#{f18a0e88-c30c-11d0-8815-00a0c906bed8}(1) + VID_2266&PID_0007(7)</USBConnectionRoute></ChronosDeviceInfo>;"<?xml version=""1.0""?>\n<Clock xmlns:dt=""urn:schemas-microsoft-com:datatypes""><Description dt:dt=""string"">E-Prime Primary Realtime Clock</Description><StartTime><Timestamp dt:dt=""int"">0</Timestamp><DateUtc dt:dt=""string"">2021-04-30T12:53:01Z</DateUtc></StartTime><FrequencyChanges><FrequencyChange><Frequency dt:dt=""r8"">2435595</Frequency><Timestamp dt:dt=""r8"">1165029495</Timestamp><Current dt:dt=""r8"">0</Current><DateUtc dt:dt=""string"">2021-04-30T12:53:01Z</DateUtc></FrequencyChange></FrequencyChanges></Clock>\n";EXP2.2_290421-10006-1;60.024;1.0.0.345;1;Chronos;1165484236;Full;3.0.3.80;3.0.3.80;04-30-2021;30/04/2021 12:53;14:53:01;3.0.3.82;1;Chronos;Chronos;1;1;1;Training;Generalbloc;;;Chronos;pretest;;1;;;;;;;TRAININGVV;SpatialTaskTraining;1;1;1;Chronos;;;;;;;;;;;;;;;;;;;;;;;;;;;;;;2;1;1;2;3;blocVVstimTraining;LISTVVRANDOM1;VV_290421/885.png;VV_290421/890.png;0;;Chronos;-999999;0;1040034;0;1;930;1040964
EXP2.2_290421;10006;1;Chronos;<ChronosDeviceInfo><FriendlyName>MyChronos</FriendlyName><DeviceIndex>1</DeviceIndex><SerialNumber>CHR-04301-1186</SerialNumber><EBNVersion>3.0.3.80</EBNVersion><FirmwareVersion>1.33</FirmwareVersion><APIVersion>1.33</APIVersion><USBHostControllerVersion>2.0</USBHostControllerVersion><USBConnectionRoute>USB#ROOT_HUB20#4&9bd2e8a&0#{f18a0e88-c30c-11d0-8815-00a0c906bed8} + USB#VID_8087&PID_0024#5&3026c139&0&1#{f18a0e88-c30c-11d0-8815-00a0c906bed8}(1) + VID_2266&PID_0007(7)</USBConnectionRoute></ChronosDeviceInfo>;"<?xml version=""1.0""?>\n<Clock xmlns:dt=""urn:schemas-microsoft-com:datatypes""><Description dt:dt=""string"">E-Prime Primary Realtime Clock</Description><StartTime><Timestamp dt:dt=""int"">0</Timestamp><DateUtc dt:dt=""string"">2021-04-30T12:53:01Z</DateUtc></StartTime><FrequencyChanges><FrequencyChange><Frequency dt:dt=""r8"">2435595</Frequency><Timestamp dt:dt=""r8"">1165029495</Timestamp><Current dt:dt=""r8"">0</Current><DateUtc dt:dt=""string"">2021-04-30T12:53:01Z</DateUtc></FrequencyChange></FrequencyChanges></Clock>\n";EXP2.2_290421-10006-1;60.024;1.0.0.345;1;Chronos;1165484236;Full;3.0.3.80;3.0.3.80;04-30-2021;30/04/2021 12:53;14:53:01;3.0.3.82;1;Chronos;Chronos;1;1;1;Training;Generalbloc;;;Chronos;pretest;;1;;;;;;;TRAININGVV;SpatialTaskTraining;1;1;1;Chronos;;;;;;;;;;;;;;;;;;;;;;;;;;;;;;3;1;1;3;5;blocVVstimTraining;LISTVVRANDOM1;VV_290421/895.png;VV_290421/900.png;0;;Chronos;-999999;0;1042983;0;5;255;1043238
EXP2.2_290421;10006;1;Chronos;<ChronosDeviceInfo><FriendlyName>MyChronos</FriendlyName><DeviceIndex>1</DeviceIndex><SerialNumber>CHR-04301-1186</SerialNumber><EBNVersion>3.0.3.80</EBNVersion><FirmwareVersion>1.33</FirmwareVersion><APIVersion>1.33</APIVersion><USBHostControllerVersion>2.0</USBHostControllerVersion><USBConnectionRoute>USB#ROOT_HUB20#4&9bd2e8a&0#{f18a0e88-c30c-11d0-8815-00a0c906bed8} + USB#VID_8087&PID_0024#5&3026c139&0&1#{f18a0e88-c30c-11d0-8815-00a0c906bed8}(1) + VID_2266&PID_0007(7)</USBConnectionRoute></ChronosDeviceInfo>;"<?xml version=""1.0""?>\n<Clock xmlns:dt=""urn:schemas-microsoft-com:datatypes""><Description dt:dt=""string"">E-Prime Primary Realtime Clock</Description><StartTime><Timestamp dt:dt=""int"">0</Timestamp><DateUtc dt:dt=""string"">2021-04-30T12:53:01Z</DateUtc></StartTime><FrequencyChanges><FrequencyChange><Frequency dt:dt=""r8"">2435595</Frequency><Timestamp dt:dt=""r8"">1165029495</Timestamp><Current dt:dt=""r8"">0</Current><DateUtc dt:dt=""string"">2021-04-30T12:53:01Z</DateUtc></FrequencyChange></FrequencyChanges></Clock>\n";EXP2.2_290421-10006-1;60.024;1.0.0.345;1;Chronos;1165484236;Full;3.0.3.80;3.0.3.80;04-30-2021;30/04/2021 12:53;14:53:01;3.0.3.82;1;Chronos;Chronos;1;1;1;Training;Generalbloc;;;Chronos;pretest;;1;;;;;;;TRAININGVV;SpatialTaskTraining;1;1;1;Chronos;;;;;;;;;;;;;;;;;;;;;;;;;;;;;;4;1;1;4;7;blocVVstimTraining;LISTVVRANDOM1;VV_290421/905.png;VV_290421/910.png;0;;Chronos;-999999;-1;1045248;0;5;294;1045542
EXP2.2_290421;10006;1;Chronos;<ChronosDeviceInfo><FriendlyName>MyChronos</FriendlyName><DeviceIndex>1</DeviceIndex><SerialNumber>CHR-04301-1186</SerialNumber><EBNVersion>3.0.3.80</EBNVersion><FirmwareVersion>1.33</FirmwareVersion><APIVersion>1.33</APIVersion><USBHostControllerVersion>2.0</USBHostControllerVersion><USBConnectionRoute>USB#ROOT_HUB20#4&9bd2e8a&0#{f18a0e88-c30c-11d0-8815-00a0c906bed8} + USB#VID_8087&PID_0024#5&3026c139&0&1#{f18a0e88-c30c-11d0-8815-00a0c906bed8}(1) + VID_2266&PID_0007(7)</USBConnectionRoute></ChronosDeviceInfo>;"<?xml version=""1.0""?>\n<Clock xmlns:dt=""urn:schemas-microsoft-com:datatypes""><Description dt:dt=""string"">E-Prime Primary Realtime Clock</Description><StartTime><Timestamp dt:dt=""int"">0</Timestamp><DateUtc dt:dt=""string"">2021-04-30T12:53:01Z</DateUtc></StartTime><FrequencyChanges><FrequencyChange><Frequency dt:dt=""r8"">2435595</Frequency><Timestamp dt:dt=""r8"">1165029495</Timestamp><Current dt:dt=""r8"">0</Current><DateUtc dt:dt=""string"">2021-04-30T12:53:01Z</DateUtc></FrequencyChange></FrequencyChanges></Clock>\n";EXP2.2_290421-10006-1;60.024;1.0.0.345;1;Chronos;1165484236;Full;3.0.3.80;3.0.3.80;04-30-2021;30/04/2021 12:53;14:53:01;3.0.3.82;1;Chronos;Chronos;1;1;1;Training;Generalbloc;;;Chronos;pretest;;1;;;;;;;TRAININGVV;SpatialTaskTraining;1;1;1;Chronos;;;;;;;;;;;;;;;;;;;;;;;;;;;;;;5;1;1;5;9;blocVVstimTraining;LISTVVRANDOM1;VV_290421/915.png;VV_290421/920.png;0;;Chronos;-999999;0;1047564;0;5;208;1047772
EXP2.2_290421;10006;1;Chronos;<ChronosDeviceInfo><FriendlyName>MyChronos</FriendlyName><DeviceIndex>1</DeviceIndex><SerialNumber>CHR-04301-1186</SerialNumber><EBNVersion>3.0.3.80</EBNVersion><FirmwareVersion>1.33</FirmwareVersion><APIVersion>1.33</APIVersion><USBHostControllerVersion>2.0</USBHostControllerVersion><USBConnectionRoute>USB#ROOT_HUB20#4&9bd2e8a&0#{f18a0e88-c30c-11d0-8815-00a0c906bed8} + USB#VID_8087&PID_0024#5&3026c139&0&1#{f18a0e88-c30c-11d0-8815-00a0c906bed8}(1) + VID_2266&PID_0007(7)</USBConnectionRoute></ChronosDeviceInfo>;"<?xml version=""1.0""?>\n<Clock xmlns:dt=""urn:schemas-microsoft-com:datatypes""><Description dt:dt=""string"">E-Prime Primary Realtime Clock</Description><StartTime><Timestamp dt:dt=""int"">0</Timestamp><DateUtc dt:dt=""string"">2021-04-30T12:53:01Z</DateUtc></StartTime><FrequencyChanges><FrequencyChange><Frequency dt:dt=""r8"">2435595</Frequency><Timestamp dt:dt=""r8"">1165029495</Timestamp><Current dt:dt=""r8"">0</Current><DateUtc dt:dt=""string"">2021-04-30T12:53:01Z</DateUtc></FrequencyChange></FrequencyChanges></Clock>\n";EXP2.2_290421-10006-1;60.024;1.0.0.345;1;Chronos;1165484236;Full;3.0.3.80;3.0.3.80;04-30-2021;30/04/2021 12:53;14:53:01;3.0.3.82;1;Chronos;Chronos;1;1;1;Training;Generalbloc;;;Chronos;pretest;;1;;;;;;;TRAININGVV;SpatialTaskTraining;1;1;1;Chronos;;;;;;;;;;;;;;;;;;;;;;;;;;;;;;6;1;1;6;11;blocVVstimTraining;LISTVVRANDOM1;VV_290421/925.png;VV_290421/875.png;0;;Chronos;-999999;0;1049797;0;1;147;1049944
EXP2.2_290421;10006;1;Chronos;<ChronosDeviceInfo><FriendlyName>MyChronos</FriendlyName><DeviceIndex>1</DeviceIndex><SerialNumber>CHR-04301-1186</SerialNumber><EBNVersion>3.0.3.80</EBNVersion><FirmwareVersion>1.33</FirmwareVersion><APIVersion>1.33</APIVersion><USBHostControllerVersion>2.0</USBHostControllerVersion><USBConnectionRoute>USB#ROOT_HUB20#4&9bd2e8a&0#{f18a0e88-c30c-11d0-8815-00a0c906bed8} + USB#VID_8087&PID_0024#5&3026c139&0&1#{f18a0e88-c30c-11d0-8815-00a0c906bed8}(1) + VID_2266&PID_0007(7)</USBConnectionRoute></ChronosDeviceInfo>;"<?xml version=""1.0""?>\n<Clock xmlns:dt=""urn:schemas-microsoft-com:datatypes""><Description dt:dt=""string"">E-Prime Primary Realtime Clock</Description><StartTime><Timestamp dt:dt=""int"">0</Timestamp><DateUtc dt:dt=""string"">2021-04-30T12:53:01Z</DateUtc></StartTime><FrequencyChanges><FrequencyChange><Frequency dt:dt=""r8"">2435595</Frequency><Timestamp dt:dt=""r8"">1165029495</Timestamp><Current dt:dt=""r8"">0</Current><DateUtc dt:dt=""string"">2021-04-30T12:53:01Z</DateUtc></FrequencyChange></FrequencyChanges></Clock>\n";EXP2.2_290421-10006-1;60.024;1.0.0.345;1;Chronos;1165484236;Full;3.0.3.80;3.0.3.80;04-30-2021;30/04/2021 12:53;14:53:01;3.0.3.82;2;Chronos;;2;1;2;TESTVV;Generalbloc;;;;pretest;Chronos;1;1;VV_290421/890.png;4;1;1;-10;blocVVstim;listVVTrial;;;;Chronos;0;;0;0;1118986;200;;0;0;0;1;Chronos;0;0;1119186;299;5;1553;1120739;0;1;Chronos;1;-1;1119485;0;5;1254;1120739;;;;;;;;;;;;;;;;;;;
EXP2.2_290421;10006;1;Chronos;<ChronosDeviceInfo><FriendlyName>MyChronos</FriendlyName><DeviceIndex>1</DeviceIndex><SerialNumber>CHR-04301-1186</SerialNumber><EBNVersion>3.0.3.80</EBNVersion><FirmwareVersion>1.33</FirmwareVersion><APIVersion>1.33</APIVersion><USBHostControllerVersion>2.0</USBHostControllerVersion><USBConnectionRoute>USB#ROOT_HUB20#4&9bd2e8a&0#{f18a0e88-c30c-11d0-8815-00a0c906bed8} + USB#VID_8087&PID_0024#5&3026c139&0&1#{f18a0e88-c30c-11d0-8815-00a0c906bed8}(1) + VID_2266&PID_0007(7)</USBConnectionRoute></ChronosDeviceInfo>;"<?xml version=""1.0""?>\n<Clock xmlns:dt=""urn:schemas-microsoft-com:datatypes""><Description dt:dt=""string"">E-Prime Primary Realtime Clock</Description><StartTime><Timestamp dt:dt=""int"">0</Timestamp><DateUtc dt:dt=""string"">2021-04-30T12:53:01Z</DateUtc></StartTime><FrequencyChanges><FrequencyChange><Frequency dt:dt=""r8"">2435595</Frequency><Timestamp dt:dt=""r8"">1165029495</Timestamp><Current dt:dt=""r8"">0</Current><DateUtc dt:dt=""string"">2021-04-30T12:53:01Z</DateUtc></FrequencyChange></FrequencyChanges></Clock>\n";EXP2.2_290421-10006-1;60.024;1.0.0.345;1;Chronos;1165484236;Full;3.0.3.80;3.0.3.80;04-30-2021;30/04/2021 12:53;14:53:01;3.0.3.82;2;Chronos;;2;1;2;TESTVV;Generalbloc;;;;pretest;Chronos;2;15;VV_290421/900.png;6;1;2;0;blocVVstim;listVVTrial;;;;Chronos;0;;0;0;1122268;200;;0;0;0;15;Chronos;0;0;1122468;299;5;1100;1123568;0;15;Chronos;1;-1;1122767;0;5;801;1123568;;;;;;;;;;;;;;;;;;;
EXP2.2_290421;10006;1;Chronos;<ChronosDeviceInfo><FriendlyName>MyChronos</FriendlyName><DeviceIndex>1</DeviceIndex><SerialNumber>CHR-04301-1186</SerialNumber><EBNVersion>3.0.3.80</EBNVersion><FirmwareVersion>1.33</FirmwareVersion><APIVersion>1.33</APIVersion><USBHostControllerVersion>2.0</USBHostControllerVersion><USBConnectionRoute>USB#ROOT_HUB20#4&9bd2e8a&0#{f18a0e88-c30c-11d0-8815-00a0c906bed8} + USB#VID_8087&PID_0024#5&3026c139&0&1#{f18a0e88-c30c-11d0-8815-00a0c906bed8}(1) + VID_2266&PID_0007(7)</USBConnectionRoute></ChronosDeviceInfo>;"<?xml version=""1.0""?>\n<Clock xmlns:dt=""urn:schemas-microsoft-com:datatypes""><Description dt:dt=""string"">E-Prime Primary Realtime Clock</Description><StartTime><Timestamp dt:dt=""int"">0</Timestamp><DateUtc dt:dt=""string"">2021-04-30T12:53:01Z</DateUtc></StartTime><FrequencyChanges><FrequencyChange><Frequency dt:dt=""r8"">2435595</Frequency><Timestamp dt:dt=""r8"">1165029495</Timestamp><Current dt:dt=""r8"">0</Current><DateUtc dt:dt=""string"">2021-04-30T12:53:01Z</DateUtc></FrequencyChange></FrequencyChanges></Clock>\n";EXP2.2_290421-10006-1;60.024;1.0.0.345;1;Chronos;1165484236;Full;3.0.3.80;3.0.3.80;04-30-2021;30/04/2021 12:53;14:53:01;3.0.3.82;2;Chronos;;2;1;2;TESTVV;Generalbloc;;;;pretest;Chronos;3;5;VV_290421/920.png;10;1;3;20;blocVVstim;listVVTrial;;;;Chronos;0;;0;-1;1125083;200;;0;0;1;5;Chronos;0;0;1125283;300;5;815;1126098;1;5;Chronos;0;0;1125583;0;5;515;1126098;;;;;;;;;;;;;;;;;;;
EXP2.2_290421;10006;1;Chronos;<ChronosDeviceInfo><FriendlyName>MyChronos</FriendlyName><DeviceIndex>1</DeviceIndex><SerialNumber>CHR-04301-1186</SerialNumber><EBNVersion>3.0.3.80</EBNVersion><FirmwareVersion>1.33</FirmwareVersion><APIVersion>1.33</APIVersion><USBHostControllerVersion>2.0</USBHostControllerVersion><USBConnectionRoute>USB#ROOT_HUB20#4&9bd2e8a&0#{f18a0e88-c30c-11d0-8815-00a0c906bed8} + USB#VID_8087&PID_0024#5&3026c139&0&1#{f18a0e88-c30c-11d0-8815-00a0c906bed8}(1) + VID_2266&PID_0007(7)</USBConnectionRoute></ChronosDeviceInfo>;"<?xml version=""1.0""?>\n<Clock xmlns:dt=""urn:schemas-microsoft-com:datatypes""><Description dt:dt=""string"">E-Prime Primary Realtime Clock</Description><StartTime><Timestamp dt:dt=""int"">0</Timestamp><DateUtc dt:dt=""string"">2021-04-30T12:53:01Z</DateUtc></StartTime><FrequencyChanges><FrequencyChange><Frequency dt:dt=""r8"">2435595</Frequency><Timestamp dt:dt=""r8"">1165029495</Timestamp><Current dt:dt=""r8"">0</Current><DateUtc dt:dt=""string"">2021-04-30T12:53:01Z</DateUtc></FrequencyChange></FrequencyChanges></Clock>\n";EXP2.2_290421-10006-1;60.024;1.0.0.345;1;Chronos;1165484236;Full;3.0.3.80;3.0.3.80;04-30-2021;30/04/2021 12:53;14:53:01;3.0.3.82;2;Chronos;;2;1;2;TESTVV;Generalbloc;;;;pretest;Chronos;4;5;VV_290421/925.png;11;1;4;25;blocVVstim;listVVTrial;;;;Chronos;0;;0;0;1127616;199;;0;0;1;5;Chronos;1;-1;1127815;300;5;496;1128311;1;5;Chronos;0;0;1128115;0;5;196;1128311;;;;;;;;;;;;;;;;;;;
EXP2.2_290421;10006;1;Chronos;<ChronosDeviceInfo><FriendlyName>MyChronos</FriendlyName><DeviceIndex>1</DeviceIndex><SerialNumber>CHR-04301-1186</SerialNumber><EBNVersion>3.0.3.80</EBNVersion><FirmwareVersion>1.33</FirmwareVersion><APIVersion>1.33</APIVersion><USBHostControllerVersion>2.0</USBHostControllerVersion><USBConnectionRoute>USB#ROOT_HUB20#4&9bd2e8a&0#{f18a0e88-c30c-11d0-8815-00a0c906bed8} + USB#VID_8087&PID_0024#5&3026c139&0&1#{f18a0e88-c30c-11d0-8815-00a0c906bed8}(1) + VID_2266&PID_0007(7)</USBConnectionRoute></ChronosDeviceInfo>;"<?xml version=""1.0""?>\n<Clock xmlns:dt=""urn:schemas-microsoft-com:datatypes""><Description dt:dt=""string"">E-Prime Primary Realtime Clock</Description><StartTime><Timestamp dt:dt=""int"">0</Timestamp><DateUtc dt:dt=""string"">2021-04-30T12:53:01Z</DateUtc></StartTime><FrequencyChanges><FrequencyChange><Frequency dt:dt=""r8"">2435595</Frequency><Timestamp dt:dt=""r8"">1165029495</Timestamp><Current dt:dt=""r8"">0</Current><DateUtc dt:dt=""string"">2021-04-30T12:53:01Z</DateUtc></FrequencyChange></FrequencyChanges></Clock>\n";EXP2.2_290421-10006-1;60.024;1.0.0.345;1;Chronos;1165484236;Full;3.0.3.80;3.0.3.80;04-30-2021;30/04/2021 12:53;14:53:01;3.0.3.82;2;Chronos;;2;1;2;TESTVV;Generalbloc;;;;pretest;Chronos;5;5;VV_290421/905.png;7;1;5;5;blocVVstim;listVVTrial;;;;Chronos;0;;0;-1;1129831;200;;0;0;1;5;Chronos;0;0;1130031;300;5;784;1130815;1;5;Chronos;0;0;1130331;0;5;484;1130815;;;;;;;;;;;;;;;;;;;
EXP2.2_290421;10006;1;Chronos;<ChronosDeviceInfo><FriendlyName>MyChronos</FriendlyName><DeviceIndex>1</DeviceIndex><SerialNumber>CHR-04301-1186</SerialNumber><EBNVersion>3.0.3.80</EBNVersion><FirmwareVersion>1.33</FirmwareVersion><APIVersion>1.33</APIVersion><USBHostControllerVersion>2.0</USBHostControllerVersion><USBConnectionRoute>USB#ROOT_HUB20#4&9bd2e8a&0#{f18a0e88-c30c-11d0-8815-00a0c906bed8} + USB#VID_8087&PID_0024#5&3026c139&0&1#{f18a0e88-c30c-11d0-8815-00a0c906bed8}(1) + VID_2266&PID_0007(7)</USBConnectionRoute></ChronosDeviceInfo>;"<?xml version=""1.0""?>\n<Clock xmlns:dt=""urn:schemas-microsoft-com:datatypes""><Description dt:dt=""string"">E-Prime Primary Realtime Clock</Description><StartTime><Timestamp dt:dt=""int"">0</Timestamp><DateUtc dt:dt=""string"">2021-04-30T12:53:01Z</DateUtc></StartTime><FrequencyChanges><FrequencyChange><Frequency dt:dt=""r8"">2435595</Frequency><Timestamp dt:dt=""r8"">1165029495</Timestamp><Current dt:dt=""r8"">0</Current><DateUtc dt:dt=""string"">2021-04-30T12:53:01Z</DateUtc></FrequencyChange></FrequencyChanges></Clock>\n";EXP2.2_290421-10006-1;60.024;1.0.0.345;1;Chronos;1165484236;Full;3.0.3.80;3.0.3.80;04-30-2021;30/04/2021 12:53;14:53:01;3.0.3.82;2;Chronos;;2;1;2;TESTVV;Generalbloc;;;;pretest;Chronos;6;1;VV_290421/880.png;2;1;6;-20;blocVVstim;listVVTrial;;;;Chronos;0;;0;-1;1132330;200;;0;0;1;1;Chronos;0;0;1132530;0;1;281;1132811;0;;;-999999;0;0;0;;0;0;;;;;;;;;;;;;;;;;;;
EXP2.2_290421;10006;1;Chronos;<ChronosDeviceInfo><FriendlyName>MyChronos</FriendlyName><DeviceIndex>1</DeviceIndex><SerialNumber>CHR-04301-1186</SerialNumber><EBNVersion>3.0.3.80</EBNVersion><FirmwareVersion>1.33</FirmwareVersion><APIVersion>1.33</APIVersion><USBHostControllerVersion>2.0</USBHostControllerVersion><USBConnectionRoute>USB#ROOT_HUB20#4&9bd2e8a&0#{f18a0e88-c30c-11d0-8815-00a0c906bed8} + USB#VID_8087&PID_0024#5&3026c139&0&1#{f18a0e88-c30c-11d0-8815-00a0c906bed8}(1) + VID_2266&PID_0007(7)</USBConnectionRoute></ChronosDeviceInfo>;"<?xml version=""1.0""?>\n<Clock xmlns:dt=""urn:schemas-microsoft-com:datatypes""><Description dt:dt=""string"">E-Prime Primary Realtime Clock</Description><StartTime><Timestamp dt:dt=""int"">0</Timestamp><DateUtc dt:dt=""string"">2021-04-30T12:53:01Z</DateUtc></StartTime><FrequencyChanges><FrequencyChange><Frequency dt:dt=""r8"">2435595</Frequency><Timestamp dt:dt=""r8"">1165029495</Timestamp><Current dt:dt=""r8"">0</Current><DateUtc dt:dt=""string"">2021-04-30T12:53:01Z</DateUtc></FrequencyChange></FrequencyChanges></Clock>\n";EXP2.2_290421-10006-1;60.024;1.0.0.345;1;Chronos;1165484236;Full;3.0.3.80;3.0.3.80;04-30-2021;30/04/2021 12:53;14:53:01;3.0.3.82;2;Chronos;;2;1;2;TESTVV;Generalbloc;;;;pretest;Chronos;7;15;VV_290421/900.png;6;1;7;0;blocVVstim;listVVTrial;;;;Chronos;0;;0;-1;1134396;200;;0;0;0;15;Chronos;0;0;1134596;0;5;252;1134848;0;;;-999999;0;0;0;;0;0;;;;;;;;;;;;;;;;;;;
EXP2.2_290421;10006;1;Chronos;<ChronosDeviceInfo><FriendlyName>MyChronos</FriendlyName><DeviceIndex>1</DeviceIndex><SerialNumber>CHR-04301-1186</SerialNumber><EBNVersion>3.0.3.80</EBNVersion><FirmwareVersion>1.33</FirmwareVersion><APIVersion>1.33</APIVersion><USBHostControllerVersion>2.0</USBHostControllerVersion><USBConnectionRoute>USB#ROOT_HUB20#4&9bd2e8a&0#{f18a0e88-c30c-11d0-8815-00a0c906bed8} + USB#VID_8087&PID_0024#5&3026c139&0&1#{f18a0e88-c30c-11d0-8815-00a0c906bed8}(1) + VID_2266&PID_0007(7)</USBConnectionRoute></ChronosDeviceInfo>;"<?xml version=""1.0""?>\n<Clock xmlns:dt=""urn:schemas-microsoft-com:datatypes""><Description dt:dt=""string"">E-Prime Primary Realtime Clock</Description><StartTime><Timestamp dt:dt=""int"">0</Timestamp><DateUtc dt:dt=""string"">2021-04-30T12:53:01Z</DateUtc></StartTime><FrequencyChanges><FrequencyChange><Frequency dt:dt=""r8"">2435595</Frequency><Timestamp dt:dt=""r8"">1165029495</Timestamp><Current dt:dt=""r8"">0</Current><DateUtc dt:dt=""string"">2021-04-30T12:53:01Z</DateUtc></FrequencyChange></FrequencyChanges></Clock>\n";EXP2.2_290421-10006-1;60.024;1.0.0.345;1;Chronos;1165484236;Full;3.0.3.80;3.0.3.80;04-30-2021;30/04/2021 12:53;14:53:01;3.0.3.82;2;Chronos;;2;1;2;TESTVV;Generalbloc;;;;pretest;Chronos;8;5;VV_290421/910.png;8;1;8;10;blocVVstim;listVVTrial;;;;Chronos;0;;0;-1;1136412;200;;0;0;1;5;Chronos;0;0;1136612;0;5;257;1136869;0;;;-999999;0;0;0;;0;0;;;;;;;;;;;;;;;;;;;
EXP2.2_290421;10006;1;Chronos;<ChronosDeviceInfo><FriendlyName>MyChronos</FriendlyName><DeviceIndex>1</DeviceIndex><SerialNumber>CHR-04301-1186</SerialNumber><EBNVersion>3.0.3.80</EBNVersion><FirmwareVersion>1.33</FirmwareVersion><APIVersion>1.33</APIVersion><USBHostControllerVersion>2.0</USBHostControllerVersion><USBConnectionRoute>USB#ROOT_HUB20#4&9bd2e8a&0#{f18a0e88-c30c-11d0-8815-00a0c906bed8} + USB#VID_8087&PID_0024#5&3026c139&0&1#{f18a0e88-c30c-11d0-8815-00a0c906bed8}(1) + VID_2266&PID_0007(7)</USBConnectionRoute></ChronosDeviceInfo>;"<?xml version=""1.0""?>\n<Clock xmlns:dt=""urn:schemas-microsoft-com:datatypes""><Description dt:dt=""string"">E-Prime Primary Realtime Clock</Description><StartTime><Timestamp dt:dt=""int"">0</Timestamp><DateUtc dt:dt=""string"">2021-04-30T12:53:01Z</DateUtc></StartTime><FrequencyChanges><FrequencyChange><Frequency dt:dt=""r8"">2435595</Frequency><Timestamp dt:dt=""r8"">1165029495</Timestamp><Current dt:dt=""r8"">0</Current><DateUtc dt:dt=""string"">2021-04-30T12:53:01Z</DateUtc></FrequencyChange></FrequencyChanges></Clock>\n";EXP2.2_290421-10006-1;60.024;1.0.0.345;1;Chronos;1165484236;Full;3.0.3.80;3.0.3.80;04-30-2021;30/04/2021 12:53;14:53:01;3.0.3.82;2;Chronos;;2;1;2;TESTVV;Generalbloc;;;;pretest;Chronos;9;1;VV_290421/890.png;4;1;9;-10;blocVVstim;listVVTrial;;;;Chronos;0;;0;0;1138395;199;;0;0;1;1;Chronos;1;-1;1138594;300;1;347;1138941;1;1;Chronos;1;0;1138894;0;1;47;1138941;;;;;;;;;;;;;;;;;;;
EXP2.2_290421;10006;1;Chronos;<ChronosDeviceInfo><FriendlyName>MyChronos</FriendlyName><DeviceIndex>1</DeviceIndex><SerialNumber>CHR-04301-1186</SerialNumber><EBNVersion>3.0.3.80</EBNVersion><FirmwareVersion>1.33</FirmwareVersion><APIVersion>1.33</APIVersion><USBHostControllerVersion>2.0</USBHostControllerVersion><USBConnectionRoute>USB#ROOT_HUB20#4&9bd2e8a&0#{f18a0e88-c30c-11d0-8815-00a0c906bed8} + USB#VID_8087&PID_0024#5&3026c139&0&1#{f18a0e88-c30c-11d0-8815-00a0c906bed8}(1) + VID_2266&PID_0007(7)</USBConnectionRoute></ChronosDeviceInfo>;"<?xml version=""1.0""?>\n<Clock xmlns:dt=""urn:schemas-microsoft-com:datatypes""><Description dt:dt=""string"">E-Prime Primary Realtime Clock</Description><StartTime><Timestamp dt:dt=""int"">0</Timestamp><DateUtc dt:dt=""string"">2021-04-30T12:53:01Z</DateUtc></StartTime><FrequencyChanges><FrequencyChange><Frequency dt:dt=""r8"">2435595</Frequency><Timestamp dt:dt=""r8"">1165029495</Timestamp><Current dt:dt=""r8"">0</Current><DateUtc dt:dt=""string"">2021-04-30T12:53:01Z</DateUtc></FrequencyChange></FrequencyChanges></Clock>\n";EXP2.2_290421-10006-1;60.024;1.0.0.345;1;Chronos;1165484236;Full;3.0.3.80;3.0.3.80;04-30-2021;30/04/2021 12:53;14:53:01;3.0.3.82;2;Chronos;;2;1;2;TESTVV;Generalbloc;;;;pretest;Chronos;10;1;VV_290421/885.png;3;1;10;-15;blocVVstim;listVVTrial;;;;Chronos;0;;1;-1;1140460;200;;0;0;1;1;Chronos;0;0;1140660;0;1;220;1140880;0;;;-999999;0;0;0;;0;0;;;;;;;;;;;;;;;;;;;
EXP2.2_290421;10006;1;Chronos;<ChronosDeviceInfo><FriendlyName>MyChronos</FriendlyName><DeviceIndex>1</DeviceIndex><SerialNumber>CHR-04301-1186</SerialNumber><EBNVersion>3.0.3.80</EBNVersion><FirmwareVersion>1.33</FirmwareVersion><APIVersion>1.33</APIVersion><USBHostControllerVersion>2.0</USBHostControllerVersion><USBConnectionRoute>USB#ROOT_HUB20#4&9bd2e8a&0#{f18a0e88-c30c-11d0-8815-00a0c906bed8} + USB#VID_8087&PID_0024#5&3026c139&0&1#{f18a0e88-c30c-11d0-8815-00a0c906bed8}(1) + VID_2266&PID_0007(7)</USBConnectionRoute></ChronosDeviceInfo>;"<?xml version=""1.0""?>\n<Clock xmlns:dt=""urn:schemas-microsoft-com:datatypes""><Description dt:dt=""string"">E-Prime Primary Realtime Clock</Description><StartTime><Timestamp dt:dt=""int"">0</Timestamp><DateUtc dt:dt=""string"">2021-04-30T12:53:01Z</DateUtc></StartTime><FrequencyChanges><FrequencyChange><Frequency dt:dt=""r8"">2435595</Frequency><Timestamp dt:dt=""r8"">1165029495</Timestamp><Current dt:dt=""r8"">0</Current><DateUtc dt:dt=""string"">2021-04-30T12:53:01Z</DateUtc></FrequencyChange></FrequencyChanges></Clock>\n";EXP2.2_290421-10006-1;60.024;1.0.0.345;1;Chronos;1165484236;Full;3.0.3.80;3.0.3.80;04-30-2021;30/04/2021 12:53;14:53:01;3.0.3.82;2;Chronos;;2;1;2;TESTVV;Generalbloc;;;;pretest;Chronos;11;1;VV_290421/890.png;4;1;11;-10;blocVVstim;listVVTrial;;;;Chronos;0;;0;-1;1142393;200;;0;0;1;1;Chronos;0;0;1142593;300;1;413;1143006;1;1;Chronos;0;0;1142893;0;1;113;1143006;;;;;;;;;;;;;;;;;;;
EXP2.2_290421;10006;1;Chronos;<ChronosDeviceInfo><FriendlyName>MyChronos</FriendlyName><DeviceIndex>1</DeviceIndex><SerialNumber>CHR-04301-1186</SerialNumber><EBNVersion>3.0.3.80</EBNVersion><FirmwareVersion>1.33</FirmwareVersion><APIVersion>1.33</APIVersion><USBHostControllerVersion>2.0</USBHostControllerVersion><USBConnectionRoute>USB#ROOT_HUB20#4&9bd2e8a&0#{f18a0e88-c30c-11d0-8815-00a0c906bed8} + USB#VID_8087&PID_0024#5&3026c139&0&1#{f18a0e88-c30c-11d0-8815-00a0c906bed8}(1) + VID_2266&PID_0007(7)</USBConnectionRoute></ChronosDeviceInfo>;"<?xml version=""1.0""?>\n<Clock xmlns:dt=""urn:schemas-microsoft-com:datatypes""><Description dt:dt=""string"">E-Prime Primary Realtime Clock</Description><StartTime><Timestamp dt:dt=""int"">0</Timestamp><DateUtc dt:dt=""string"">2021-04-30T12:53:01Z</DateUtc></StartTime><FrequencyChanges><FrequencyChange><Frequency dt:dt=""r8"">2435595</Frequency><Timestamp dt:dt=""r8"">1165029495</Timestamp><Current dt:dt=""r8"">0</Current><DateUtc dt:dt=""string"">2021-04-30T12:53:01Z</DateUtc></FrequencyChange></FrequencyChanges></Clock>\n";EXP2.2_290421-10006-1;60.024;1.0.0.345;1;Chronos;1165484236;Full;3.0.3.80;3.0.3.80;04-30-2021;30/04/2021 12:53;14:53:01;3.0.3.82;2;Chronos;;2;1;2;TESTVV;Generalbloc;;;;pretest;Chronos;12;5;VV_290421/925.png;11;1;12;25;blocVVstim;listVVTrial;;;;Chronos;0;;1;-1;1144525;200;;0;0;1;5;Chronos;1;0;1144725;0;5;233;1144958;0;;;-999999;0;0;0;;0;0;;;;;;;;;;;;;;;;;;;
EXP2.2_290421;10006;1;Chronos;<ChronosDeviceInfo><FriendlyName>MyChronos</FriendlyName><DeviceIndex>1</DeviceIndex><SerialNumber>CHR-04301-1186</SerialNumber><EBNVersion>3.0.3.80</EBNVersion><FirmwareVersion>1.33</FirmwareVersion><APIVersion>1.33</APIVersion><USBHostControllerVersion>2.0</USBHostControllerVersion><USBConnectionRoute>USB#ROOT_HUB20#4&9bd2e8a&0#{f18a0e88-c30c-11d0-8815-00a0c906bed8} + USB#VID_8087&PID_0024#5&3026c139&0&1#{f18a0e88-c30c-11d0-8815-00a0c906bed8}(1) + VID_2266&PID_0007(7)</USBConnectionRoute></ChronosDeviceInfo>;"<?xml version=""1.0""?>\n<Clock xmlns:dt=""urn:schemas-microsoft-com:datatypes""><Description dt:dt=""string"">E-Prime Primary Realtime Clock</Description><StartTime><Timestamp dt:dt=""int"">0</Timestamp><DateUtc dt:dt=""string"">2021-04-30T12:53:01Z</DateUtc></StartTime><FrequencyChanges><FrequencyChange><Frequency dt:dt=""r8"">2435595</Frequency><Timestamp dt:dt=""r8"">1165029495</Timestamp><Current dt:dt=""r8"">0</Current><DateUtc dt:dt=""string"">2021-04-30T12:53:01Z</DateUtc></FrequencyChange></FrequencyChanges></Clock>\n";EXP2.2_290421-10006-1;60.024;1.0.0.345;1;Chronos;1165484236;Full;3.0.3.80;3.0.3.80;04-30-2021;30/04/2021 12:53;14:53:01;3.0.3.82;2;Chronos;;2;1;2;TESTVV;Generalbloc;;;;pretest;Chronos;13;1;VV_290421/895.png;5;1;13;-5;blocVVstim;listVVTrial;;;;Chronos;0;;0;0;1146475;200;;0;0;1;1;Chronos;0;0;1146675;299;1;611;1147286;1;1;Chronos;1;-1;1146974;0;1;312;1147286;;;;;;;;;;;;;;;;;;;
EXP2.2_290421;10006;1;Chronos;<ChronosDeviceInfo><FriendlyName>MyChronos</FriendlyName><DeviceIndex>1</DeviceIndex><SerialNumber>CHR-04301-1186</SerialNumber><EBNVersion>3.0.3.80</EBNVersion><FirmwareVersion>1.33</FirmwareVersion><APIVersion>1.33</APIVersion><USBHostControllerVersion>2.0</USBHostControllerVersion><USBConnectionRoute>USB#ROOT_HUB20#4&9bd2e8a&0#{f18a0e88-c30c-11d0-8815-00a0c906bed8} + USB#VID_8087&PID_0024#5&3026c139&0&1#{f18a0e88-c30c-11d0-8815-00a0c906bed8}(1) + VID_2266&PID_0007(7)</USBConnectionRoute></ChronosDeviceInfo>;"<?xml version=""1.0""?>\n<Clock xmlns:dt=""urn:schemas-microsoft-com:datatypes""><Description dt:dt=""string"">E-Prime Primary Realtime Clock</Description><StartTime><Timestamp dt:dt=""int"">0</Timestamp><DateUtc dt:dt=""string"">2021-04-30T12:53:01Z</DateUtc></StartTime><FrequencyChanges><FrequencyChange><Frequency dt:dt=""r8"">2435595</Frequency><Timestamp dt:dt=""r8"">1165029495</Timestamp><Current dt:dt=""r8"">0</Current><DateUtc dt:dt=""string"">2021-04-30T12:53:01Z</DateUtc></FrequencyChange></FrequencyChanges></Clock>\n";EXP2.2_290421-10006-1;60.024;1.0.0.345;1;Chronos;1165484236;Full;3.0.3.80;3.0.3.80;04-30-2021;30/04/2021 12:53;14:53:01;3.0.3.82;2;Chronos;;2;1;2;TESTVV;Generalbloc;;;;pretest;Chronos;14;5;VV_290421/915.png;9;1;14;15;blocVVstim;listVVTrial;;;;Chronos;0;;0;-1;1148807;200;;0;0;0;5;Chronos;0;0;1149007;300;1;330;1149337;0;5;Chronos;0;0;1149307;0;1;30;1149337;;;;;;;;;;;;;;;;;;;
EXP2.2_290421;10006;1;Chronos;<ChronosDeviceInfo><FriendlyName>MyChronos</FriendlyName><DeviceIndex>1</DeviceIndex><SerialNumber>CHR-04301-1186</SerialNumber><EBNVersion>3.0.3.80</EBNVersion><FirmwareVersion>1.33</FirmwareVersion><APIVersion>1.33</APIVersion><USBHostControllerVersion>2.0</USBHostControllerVersion><USBConnectionRoute>USB#ROOT_HUB20#4&9bd2e8a&0#{f18a0e88-c30c-11d0-8815-00a0c906bed8} + USB#VID_8087&PID_0024#5&3026c139&0&1#{f18a0e88-c30c-11d0-8815-00a0c906bed8}(1) + VID_2266&PID_0007(7)</USBConnectionRoute></ChronosDeviceInfo>;"<?xml version=""1.0""?>\n<Clock xmlns:dt=""urn:schemas-microsoft-com:datatypes""><Description dt:dt=""string"">E-Prime Primary Realtime Clock</Description><StartTime><Timestamp dt:dt=""int"">0</Timestamp><DateUtc dt:dt=""string"">2021-04-30T12:53:01Z</DateUtc></StartTime><FrequencyChanges><FrequencyChange><Frequency dt:dt=""r8"">2435595</Frequency><Timestamp dt:dt=""r8"">1165029495</Timestamp><Current dt:dt=""r8"">0</Current><DateUtc dt:dt=""string"">2021-04-30T12:53:01Z</DateUtc></FrequencyChange></FrequencyChanges></Clock>\n";EXP2.2_290421-10006-1;60.024;1.0.0.345;1;Chronos;1165484236;Full;3.0.3.80;3.0.3.80;04-30-2021;30/04/2021 12:53;14:53:01;3.0.3.82;2;Chronos;;2;1;2;TESTVV;Generalbloc;;;;pretest;Chronos;15;5;VV_290421/915.png;9;1;15;15;blocVVstim;listVVTrial;;;;Chronos;0;;0;-1;1150856;200;;0;0;1;5;Chronos;0;0;1151056;300;5;368;1151424;1;5;Chronos;0;0;1151356;0;5;68;1151424;;;;;;;;;;;;;;;;;;;
EXP2.2_290421;10006;1;Chronos;<ChronosDeviceInfo><FriendlyName>MyChronos</FriendlyName><DeviceIndex>1</DeviceIndex><SerialNumber>CHR-04301-1186</SerialNumber><EBNVersion>3.0.3.80</EBNVersion><FirmwareVersion>1.33</FirmwareVersion><APIVersion>1.33</APIVersion><USBHostControllerVersion>2.0</USBHostControllerVersion><USBConnectionRoute>USB#ROOT_HUB20#4&9bd2e8a&0#{f18a0e88-c30c-11d0-8815-00a0c906bed8} + USB#VID_8087&PID_0024#5&3026c139&0&1#{f18a0e88-c30c-11d0-8815-00a0c906bed8}(1) + VID_2266&PID_0007(7)</USBConnectionRoute></ChronosDeviceInfo>;"<?xml version=""1.0""?>\n<Clock xmlns:dt=""urn:schemas-microsoft-com:datatypes""><Description dt:dt=""string"">E-Prime Primary Realtime Clock</Description><StartTime><Timestamp dt:dt=""int"">0</Timestamp><DateUtc dt:dt=""string"">2021-04-30T12:53:01Z</DateUtc></StartTime><FrequencyChanges><FrequencyChange><Frequency dt:dt=""r8"">2435595</Frequency><Timestamp dt:dt=""r8"">1165029495</Timestamp><Current dt:dt=""r8"">0</Current><DateUtc dt:dt=""string"">2021-04-30T12:53:01Z</DateUtc></FrequencyChange></FrequencyChanges></Clock>\n";EXP2.2_290421-10006-1;60.024;1.0.0.345;1;Chronos;1165484236;Full;3.0.3.80;3.0.3.80;04-30-2021;30/04/2021 12:53;14:53:01;3.0.3.82;2;Chronos;;2;1;2;TESTVV;Generalbloc;;;;pretest;Chronos;16;1;VV_290421/890.png;4;1;16;-10;blocVVstim;listVVTrial;;;;Chronos;0;;0;0;1152939;200;;0;0;1;1;Chronos;0;0;1153139;300;1;520;1153659;1;1;Chronos;0;0;1153439;0;1;220;1153659;;;;;;;;;;;;;;;;;;;
EXP2.2_290421;10006;1;Chronos;<ChronosDeviceInfo><FriendlyName>MyChronos</FriendlyName><DeviceIndex>1</DeviceIndex><SerialNumber>CHR-04301-1186</SerialNumber><EBNVersion>3.0.3.80</EBNVersion><FirmwareVersion>1.33</FirmwareVersion><APIVersion>1.33</APIVersion><USBHostControllerVersion>2.0</USBHostControllerVersion><USBConnectionRoute>USB#ROOT_HUB20#4&9bd2e8a&0#{f18a0e88-c30c-11d0-8815-00a0c906bed8} + USB#VID_8087&PID_0024#5&3026c139&0&1#{f18a0e88-c30c-11d0-8815-00a0c906bed8}(1) + VID_2266&PID_0007(7)</USBConnectionRoute></ChronosDeviceInfo>;"<?xml version=""1.0""?>\n<Clock xmlns:dt=""urn:schemas-microsoft-com:datatypes""><Description dt:dt=""string"">E-Prime Primary Realtime Clock</Description><StartTime><Timestamp dt:dt=""int"">0</Timestamp><DateUtc dt:dt=""string"">2021-04-30T12:53:01Z</DateUtc></StartTime><FrequencyChanges><FrequencyChange><Frequency dt:dt=""r8"">2435595</Frequency><Timestamp dt:dt=""r8"">1165029495</Timestamp><Current dt:dt=""r8"">0</Current><DateUtc dt:dt=""string"">2021-04-30T12:53:01Z</DateUtc></FrequencyChange></FrequencyChanges></Clock>\n";EXP2.2_290421-10006-1;60.024;1.0.0.345;1;Chronos;1165484236;Full;3.0.3.80;3.0.3.80;04-30-2021;30/04/2021 12:53;14:53:01;3.0.3.82;2;Chronos;;2;1;2;TESTVV;Generalbloc;;;;pretest;Chronos;17;1;VV_290421/895.png;5;1;17;-5;blocVVstim;listVVTrial;;;;Chronos;0;;0;-1;1155171;200;;0;0;1;1;Chronos;0;0;1155371;300;1;569;1155940;1;1;Chronos;0;0;1155671;0;1;269;1155940;;;;;;;;;;;;;;;;;;;
EXP2.2_290421;10006;1;Chronos;<ChronosDeviceInfo><FriendlyName>MyChronos</FriendlyName><DeviceIndex>1</DeviceIndex><SerialNumber>CHR-04301-1186</SerialNumber><EBNVersion>3.0.3.80</EBNVersion><FirmwareVersion>1.33</FirmwareVersion><APIVersion>1.33</APIVersion><USBHostControllerVersion>2.0</USBHostControllerVersion><USBConnectionRoute>USB#ROOT_HUB20#4&9bd2e8a&0#{f18a0e88-c30c-11d0-8815-00a0c906bed8} + USB#VID_8087&PID_0024#5&3026c139&0&1#{f18a0e88-c30c-11d0-8815-00a0c906bed8}(1) + VID_2266&PID_0007(7)</USBConnectionRoute></ChronosDeviceInfo>;"<?xml version=""1.0""?>\n<Clock xmlns:dt=""urn:schemas-microsoft-com:datatypes""><Description dt:dt=""string"">E-Prime Primary Realtime Clock</Description><StartTime><Timestamp dt:dt=""int"">0</Timestamp><DateUtc dt:dt=""string"">2021-04-30T12:53:01Z</DateUtc></StartTime><FrequencyChanges><FrequencyChange><Frequency dt:dt=""r8"">2435595</Frequency><Timestamp dt:dt=""r8"">1165029495</Timestamp><Current dt:dt=""r8"">0</Current><DateUtc dt:dt=""string"">2021-04-30T12:53:01Z</DateUtc></FrequencyChange></FrequencyChanges></Clock>\n";EXP2.2_290421-10006-1;60.024;1.0.0.345;1;Chronos;1165484236;Full;3.0.3.80;3.0.3.80;04-30-2021;30/04/2021 12:53;14:53:01;3.0.3.82;2;Chronos;;2;1;2;TESTVV;Generalbloc;;;;pretest;Chronos;18;1;VV_290421/875.png;1;1;18;-25;blocVVstim;listVVTrial;;;;Chronos;0;;0;0;1157454;200;;0;0;1;1;Chronos;0;0;1157654;299;1;417;1158071;1;1;Chronos;1;-1;1157953;0;1;118;1158071;;;;;;;;;;;;;;;;;;;
EXP2.2_290421;10006;1;Chronos;<ChronosDeviceInfo><FriendlyName>MyChronos</FriendlyName><DeviceIndex>1</DeviceIndex><SerialNumber>CHR-04301-1186</SerialNumber><EBNVersion>3.0.3.80</EBNVersion><FirmwareVersion>1.33</FirmwareVersion><APIVersion>1.33</APIVersion><USBHostControllerVersion>2.0</USBHostControllerVersion><USBConnectionRoute>USB#ROOT_HUB20#4&9bd2e8a&0#{f18a0e88-c30c-11d0-8815-00a0c906bed8} + USB#VID_8087&PID_0024#5&3026c139&0&1#{f18a0e88-c30c-11d0-8815-00a0c906bed8}(1) + VID_2266&PID_0007(7)</USBConnectionRoute></ChronosDeviceInfo>;"<?xml version=""1.0""?>\n<Clock xmlns:dt=""urn:schemas-microsoft-com:datatypes""><Description dt:dt=""string"">E-Prime Primary Realtime Clock</Description><StartTime><Timestamp dt:dt=""int"">0</Timestamp><DateUtc dt:dt=""string"">2021-04-30T12:53:01Z</DateUtc></StartTime><FrequencyChanges><FrequencyChange><Frequency dt:dt=""r8"">2435595</Frequency><Timestamp dt:dt=""r8"">1165029495</Timestamp><Current dt:dt=""r8"">0</Current><DateUtc dt:dt=""string"">2021-04-30T12:53:01Z</DateUtc></FrequencyChange></FrequencyChanges></Clock>\n";EXP2.2_290421-10006-1;60.024;1.0.0.345;1;Chronos;1165484236;Full;3.0.3.80;3.0.3.80;04-30-2021;30/04/2021 12:53;14:53:01;3.0.3.82;2;Chronos;;2;1;2;TESTVV;Generalbloc;;;;pretest;Chronos;19;15;VV_290421/900.png;6;1;19;0;blocVVstim;listVVTrial;;;;Chronos;0;;0;-1;1159586;200;;0;0;0;15;Chronos;0;0;1159786;300;1;768;1160554;0;15;Chronos;0;0;1160086;0;1;468;1160554;;;;;;;;;;;;;;;;;;;
EXP2.2_290421;10006;1;Chronos;<ChronosDeviceInfo><FriendlyName>MyChronos</FriendlyName><DeviceIndex>1</DeviceIndex><SerialNumber>CHR-04301-1186</SerialNumber><EBNVersion>3.0.3.80</EBNVersion><FirmwareVersion>1.33</FirmwareVersion><APIVersion>1.33</APIVersion><USBHostControllerVersion>2.0</USBHostControllerVersion><USBConnectionRoute>USB#ROOT_HUB20#4&9bd2e8a&0#{f18a0e88-c30c-11d0-8815-00a0c906bed8} + USB#VID_8087&PID_0024#5&3026c139&0&1#{f18a0e88-c30c-11d0-8815-00a0c906bed8}(1) + VID_2266&PID_0007(7)</USBConnectionRoute></ChronosDeviceInfo>;"<?xml version=""1.0""?>\n<Clock xmlns:dt=""urn:schemas-microsoft-com:datatypes""><Description dt:dt=""string"">E-Prime Primary Realtime Clock</Description><StartTime><Timestamp dt:dt=""int"">0</Timestamp><DateUtc dt:dt=""string"">2021-04-30T12:53:01Z</DateUtc></StartTime><FrequencyChanges><FrequencyChange><Frequency dt:dt=""r8"">2435595</Frequency><Timestamp dt:dt=""r8"">1165029495</Timestamp><Current dt:dt=""r8"">0</Current><DateUtc dt:dt=""string"">2021-04-30T12:53:01Z</DateUtc></FrequencyChange></FrequencyChanges></Clock>\n";EXP2.2_290421-10006-1;60.024;1.0.0.345;1;Chronos;1165484236;Full;3.0.3.80;3.0.3.80;04-30-2021;30/04/2021 12:53;14:53:01;3.0.3.82;2;Chronos;;2;1;2;TESTVV;Generalbloc;;;;pretest;Chronos;20;5;VV_290421/910.png;8;1;20;10;blocVVstim;listVVTrial;;;;Chronos;0;;1;-1;1162068;200;;0;0;1;5;Chronos;0;0;1162268;300;5;603;1162871;1;5;Chronos;0;0;1162568;0;5;303;1162871;;;;;;;;;;;;;;;;;;;
EXP2.2_290421;10006;1;Chronos;<ChronosDeviceInfo><FriendlyName>MyChronos</FriendlyName><DeviceIndex>1</DeviceIndex><SerialNumber>CHR-04301-1186</SerialNumber><EBNVersion>3.0.3.80</EBNVersion><FirmwareVersion>1.33</FirmwareVersion><APIVersion>1.33</APIVersion><USBHostControllerVersion>2.0</USBHostControllerVersion><USBConnectionRoute>USB#ROOT_HUB20#4&9bd2e8a&0#{f18a0e88-c30c-11d0-8815-00a0c906bed8} + USB#VID_8087&PID_0024#5&3026c139&0&1#{f18a0e88-c30c-11d0-8815-00a0c906bed8}(1) + VID_2266&PID_0007(7)</USBConnectionRoute></ChronosDeviceInfo>;"<?xml version=""1.0""?>\n<Clock xmlns:dt=""urn:schemas-microsoft-com:datatypes""><Description dt:dt=""string"">E-Prime Primary Realtime Clock</Description><StartTime><Timestamp dt:dt=""int"">0</Timestamp><DateUtc dt:dt=""string"">2021-04-30T12:53:01Z</DateUtc></StartTime><FrequencyChanges><FrequencyChange><Frequency dt:dt=""r8"">2435595</Frequency><Timestamp dt:dt=""r8"">1165029495</Timestamp><Current dt:dt=""r8"">0</Current><DateUtc dt:dt=""string"">2021-04-30T12:53:01Z</DateUtc></FrequencyChange></FrequencyChanges></Clock>\n";EXP2.2_290421-10006-1;60.024;1.0.0.345;1;Chronos;1165484236;Full;3.0.3.80;3.0.3.80;04-30-2021;30/04/2021 12:53;14:53:01;3.0.3.82;2;Chronos;;2;1;2;TESTVV;Generalbloc;;;;pretest;Chronos;21;1;VV_290421/895.png;5;1;21;-5;blocVVstim;listVVTrial;;;;Chronos;0;;0;-1;1164384;200;;0;0;0;1;Chronos;0;0;1164584;300;5;711;1165295;0;1;Chronos;0;0;1164884;0;5;411;1165295;;;;;;;;;;;;;;;;;;;
EXP2.2_290421;10006;1;Chronos;<ChronosDeviceInfo><FriendlyName>MyChronos</FriendlyName><DeviceIndex>1</DeviceIndex><SerialNumber>CHR-04301-1186</SerialNumber><EBNVersion>3.0.3.80</EBNVersion><FirmwareVersion>1.33</FirmwareVersion><APIVersion>1.33</APIVersion><USBHostControllerVersion>2.0</USBHostControllerVersion><USBConnectionRoute>USB#ROOT_HUB20#4&9bd2e8a&0#{f18a0e88-c30c-11d0-8815-00a0c906bed8} + USB#VID_8087&PID_0024#5&3026c139&0&1#{f18a0e88-c30c-11d0-8815-00a0c906bed8}(1) + VID_2266&PID_0007(7)</USBConnectionRoute></ChronosDeviceInfo>;"<?xml version=""1.0""?>\n<Clock xmlns:dt=""urn:schemas-microsoft-com:datatypes""><Description dt:dt=""string"">E-Prime Primary Realtime Clock</Description><StartTime><Timestamp dt:dt=""int"">0</Timestamp><DateUtc dt:dt=""string"">2021-04-30T12:53:01Z</DateUtc></StartTime><FrequencyChanges><FrequencyChange><Frequency dt:dt=""r8"">2435595</Frequency><Timestamp dt:dt=""r8"">1165029495</Timestamp><Current dt:dt=""r8"">0</Current><DateUtc dt:dt=""string"">2021-04-30T12:53:01Z</DateUtc></FrequencyChange></FrequencyChanges></Clock>\n";EXP2.2_290421-10006-1;60.024;1.0.0.345;1;Chronos;1165484236;Full;3.0.3.80;3.0.3.80;04-30-2021;30/04/2021 12:53;14:53:01;3.0.3.82;2;Chronos;;2;1;2;TESTVV;Generalbloc;;;;pretest;Chronos;22;5;VV_290421/920.png;10;1;22;20;blocVVstim;listVVTrial;;;;Chronos;0;;0;0;1166817;199;;0;0;1;5;Chronos;1;-1;1167016;300;5;775;1167791;1;5;Chronos;1;0;1167316;0;5;475;1167791;;;;;;;;;;;;;;;;;;;
EXP2.2_290421;10006;1;Chronos;<ChronosDeviceInfo><FriendlyName>MyChronos</FriendlyName><DeviceIndex>1</DeviceIndex><SerialNumber>CHR-04301-1186</SerialNumber><EBNVersion>3.0.3.80</EBNVersion><FirmwareVersion>1.33</FirmwareVersion><APIVersion>1.33</APIVersion><USBHostControllerVersion>2.0</USBHostControllerVersion><USBConnectionRoute>USB#ROOT_HUB20#4&9bd2e8a&0#{f18a0e88-c30c-11d0-8815-00a0c906bed8} + USB#VID_8087&PID_0024#5&3026c139&0&1#{f18a0e88-c30c-11d0-8815-00a0c906bed8}(1) + VID_2266&PID_0007(7)</USBConnectionRoute></ChronosDeviceInfo>;"<?xml version=""1.0""?>\n<Clock xmlns:dt=""urn:schemas-microsoft-com:datatypes""><Description dt:dt=""string"">E-Prime Primary Realtime Clock</Description><StartTime><Timestamp dt:dt=""int"">0</Timestamp><DateUtc dt:dt=""string"">2021-04-30T12:53:01Z</DateUtc></StartTime><FrequencyChanges><FrequencyChange><Frequency dt:dt=""r8"">2435595</Frequency><Timestamp dt:dt=""r8"">1165029495</Timestamp><Current dt:dt=""r8"">0</Current><DateUtc dt:dt=""string"">2021-04-30T12:53:01Z</DateUtc></FrequencyChange></FrequencyChanges></Clock>\n";EXP2.2_290421-10006-1;60.024;1.0.0.345;1;Chronos;1165484236;Full;3.0.3.80;3.0.3.80;04-30-2021;30/04/2021 12:53;14:53:01;3.0.3.82;2;Chronos;;2;1;2;TESTVV;Generalbloc;;;;pretest;Chronos;23;1;VV_290421/885.png;3;1;23;-15;blocVVstim;listVVTrial;;;;Chronos;0;;0;0;1169316;199;;0;0;1;1;Chronos;1;-1;1169515;300;1;360;1169875;1;1;Chronos;0;0;1169815;0;1;60;1169875;;;;;;;;;;;;;;;;;;;
EXP2.2_290421;10006;1;Chronos;<ChronosDeviceInfo><FriendlyName>MyChronos</FriendlyName><DeviceIndex>1</DeviceIndex><SerialNumber>CHR-04301-1186</SerialNumber><EBNVersion>3.0.3.80</EBNVersion><FirmwareVersion>1.33</FirmwareVersion><APIVersion>1.33</APIVersion><USBHostControllerVersion>2.0</USBHostControllerVersion><USBConnectionRoute>USB#ROOT_HUB20#4&9bd2e8a&0#{f18a0e88-c30c-11d0-8815-00a0c906bed8} + USB#VID_8087&PID_0024#5&3026c139&0&1#{f18a0e88-c30c-11d0-8815-00a0c906bed8}(1) + VID_2266&PID_0007(7)</USBConnectionRoute></ChronosDeviceInfo>;"<?xml version=""1.0""?>\n<Clock xmlns:dt=""urn:schemas-microsoft-com:datatypes""><Description dt:dt=""string"">E-Prime Primary Realtime Clock</Description><StartTime><Timestamp dt:dt=""int"">0</Timestamp><DateUtc dt:dt=""string"">2021-04-30T12:53:01Z</DateUtc></StartTime><FrequencyChanges><FrequencyChange><Frequency dt:dt=""r8"">2435595</Frequency><Timestamp dt:dt=""r8"">1165029495</Timestamp><Current dt:dt=""r8"">0</Current><DateUtc dt:dt=""string"">2021-04-30T12:53:01Z</DateUtc></FrequencyChange></FrequencyChanges></Clock>\n";EXP2.2_290421-10006-1;60.024;1.0.0.345;1;Chronos;1165484236;Full;3.0.3.80;3.0.3.80;04-30-2021;30/04/2021 12:53;14:53:01;3.0.3.82;2;Chronos;;2;1;2;TESTVV;Generalbloc;;;;pretest;Chronos;24;5;VV_290421/910.png;8;1;24;10;blocVVstim;listVVTrial;;;;Chronos;0;;0;-1;1171398;200;;0;0;1;5;Chronos;0;0;1171598;300;5;630;1172228;1;5;Chronos;0;0;1171898;0;5;330;1172228;;;;;;;;;;;;;;;;;;;
EXP2.2_290421;10006;1;Chronos;<ChronosDeviceInfo><FriendlyName>MyChronos</FriendlyName><DeviceIndex>1</DeviceIndex><SerialNumber>CHR-04301-1186</SerialNumber><EBNVersion>3.0.3.80</EBNVersion><FirmwareVersion>1.33</FirmwareVersion><APIVersion>1.33</APIVersion><USBHostControllerVersion>2.0</USBHostControllerVersion><USBConnectionRoute>USB#ROOT_HUB20#4&9bd2e8a&0#{f18a0e88-c30c-11d0-8815-00a0c906bed8} + USB#VID_8087&PID_0024#5&3026c139&0&1#{f18a0e88-c30c-11d0-8815-00a0c906bed8}(1) + VID_2266&PID_0007(7)</USBConnectionRoute></ChronosDeviceInfo>;"<?xml version=""1.0""?>\n<Clock xmlns:dt=""urn:schemas-microsoft-com:datatypes""><Description dt:dt=""string"">E-Prime Primary Realtime Clock</Description><StartTime><Timestamp dt:dt=""int"">0</Timestamp><DateUtc dt:dt=""string"">2021-04-30T12:53:01Z</DateUtc></StartTime><FrequencyChanges><FrequencyChange><Frequency dt:dt=""r8"">2435595</Frequency><Timestamp dt:dt=""r8"">1165029495</Timestamp><Current dt:dt=""r8"">0</Current><DateUtc dt:dt=""string"">2021-04-30T12:53:01Z</DateUtc></FrequencyChange></FrequencyChanges></Clock>\n";EXP2.2_290421-10006-1;60.024;1.0.0.345;1;Chronos;1165484236;Full;3.0.3.80;3.0.3.80;04-30-2021;30/04/2021 12:53;14:53:01;3.0.3.82;2;Chronos;;2;1;2;TESTVV;Generalbloc;;;;pretest;Chronos;25;1;VV_290421/880.png;2;1;25;-20;blocVVstim;listVVTrial;;;;Chronos;0;;0;-1;1173747;200;;0;0;1;1;Chronos;0;0;1173947;300;1;563;1174510;1;1;Chronos;0;0;1174247;0;1;263;1174510;;;;;;;;;;;;;;;;;;;
EXP2.2_290421;10006;1;Chronos;<ChronosDeviceInfo><FriendlyName>MyChronos</FriendlyName><DeviceIndex>1</DeviceIndex><SerialNumber>CHR-04301-1186</SerialNumber><EBNVersion>3.0.3.80</EBNVersion><FirmwareVersion>1.33</FirmwareVersion><APIVersion>1.33</APIVersion><USBHostControllerVersion>2.0</USBHostControllerVersion><USBConnectionRoute>USB#ROOT_HUB20#4&9bd2e8a&0#{f18a0e88-c30c-11d0-8815-00a0c906bed8} + USB#VID_8087&PID_0024#5&3026c139&0&1#{f18a0e88-c30c-11d0-8815-00a0c906bed8}(1) + VID_2266&PID_0007(7)</USBConnectionRoute></ChronosDeviceInfo>;"<?xml version=""1.0""?>\n<Clock xmlns:dt=""urn:schemas-microsoft-com:datatypes""><Description dt:dt=""string"">E-Prime Primary Realtime Clock</Description><StartTime><Timestamp dt:dt=""int"">0</Timestamp><DateUtc dt:dt=""string"">2021-04-30T12:53:01Z</DateUtc></StartTime><FrequencyChanges><FrequencyChange><Frequency dt:dt=""r8"">2435595</Frequency><Timestamp dt:dt=""r8"">1165029495</Timestamp><Current dt:dt=""r8"">0</Current><DateUtc dt:dt=""string"">2021-04-30T12:53:01Z</DateUtc></FrequencyChange></FrequencyChanges></Clock>\n";EXP2.2_290421-10006-1;60.024;1.0.0.345;1;Chronos;1165484236;Full;3.0.3.80;3.0.3.80;04-30-2021;30/04/2021 12:53;14:53:01;3.0.3.82;2;Chronos;;2;1;2;TESTVV;Generalbloc;;;;pretest;Chronos;26;1;VV_290421/880.png;2;1;26;-20;blocVVstim;listVVTrial;;;;Chronos;0;;0;0;1176030;199;;0;0;1;1;Chronos;1;-1;1176229;300;1;755;1176984;1;1;Chronos;1;0;1176529;0;1;455;1176984;;;;;;;;;;;;;;;;;;;
EXP2.2_290421;10006;1;Chronos;<ChronosDeviceInfo><FriendlyName>MyChronos</FriendlyName><DeviceIndex>1</DeviceIndex><SerialNumber>CHR-04301-1186</SerialNumber><EBNVersion>3.0.3.80</EBNVersion><FirmwareVersion>1.33</FirmwareVersion><APIVersion>1.33</APIVersion><USBHostControllerVersion>2.0</USBHostControllerVersion><USBConnectionRoute>USB#ROOT_HUB20#4&9bd2e8a&0#{f18a0e88-c30c-11d0-8815-00a0c906bed8} + USB#VID_8087&PID_0024#5&3026c139&0&1#{f18a0e88-c30c-11d0-8815-00a0c906bed8}(1) + VID_2266&PID_0007(7)</USBConnectionRoute></ChronosDeviceInfo>;"<?xml version=""1.0""?>\n<Clock xmlns:dt=""urn:schemas-microsoft-com:datatypes""><Description dt:dt=""string"">E-Prime Primary Realtime Clock</Description><StartTime><Timestamp dt:dt=""int"">0</Timestamp><DateUtc dt:dt=""string"">2021-04-30T12:53:01Z</DateUtc></StartTime><FrequencyChanges><FrequencyChange><Frequency dt:dt=""r8"">2435595</Frequency><Timestamp dt:dt=""r8"">1165029495</Timestamp><Current dt:dt=""r8"">0</Current><DateUtc dt:dt=""string"">2021-04-30T12:53:01Z</DateUtc></FrequencyChange></FrequencyChanges></Clock>\n";EXP2.2_290421-10006-1;60.024;1.0.0.345;1;Chronos;1165484236;Full;3.0.3.80;3.0.3.80;04-30-2021;30/04/2021 12:53;14:53:01;3.0.3.82;2;Chronos;;2;1;2;TESTVV;Generalbloc;;;;pretest;Chronos;27;5;VV_290421/910.png;8;1;27;10;blocVVstim;listVVTrial;;;;Chronos;0;;0;0;1178512;200;;0;0;1;5;Chronos;0;0;1178712;300;5;473;1179185;1;5;Chronos;0;0;1179012;0;5;173;1179185;;;;;;;;;;;;;;;;;;;
EXP2.2_290421;10006;1;Chronos;<ChronosDeviceInfo><FriendlyName>MyChronos</FriendlyName><DeviceIndex>1</DeviceIndex><SerialNumber>CHR-04301-1186</SerialNumber><EBNVersion>3.0.3.80</EBNVersion><FirmwareVersion>1.33</FirmwareVersion><APIVersion>1.33</APIVersion><USBHostControllerVersion>2.0</USBHostControllerVersion><USBConnectionRoute>USB#ROOT_HUB20#4&9bd2e8a&0#{f18a0e88-c30c-11d0-8815-00a0c906bed8} + USB#VID_8087&PID_0024#5&3026c139&0&1#{f18a0e88-c30c-11d0-8815-00a0c906bed8}(1) + VID_2266&PID_0007(7)</USBConnectionRoute></ChronosDeviceInfo>;"<?xml version=""1.0""?>\n<Clock xmlns:dt=""urn:schemas-microsoft-com:datatypes""><Description dt:dt=""string"">E-Prime Primary Realtime Clock</Description><StartTime><Timestamp dt:dt=""int"">0</Timestamp><DateUtc dt:dt=""string"">2021-04-30T12:53:01Z</DateUtc></StartTime><FrequencyChanges><FrequencyChange><Frequency dt:dt=""r8"">2435595</Frequency><Timestamp dt:dt=""r8"">1165029495</Timestamp><Current dt:dt=""r8"">0</Current><DateUtc dt:dt=""string"">2021-04-30T12:53:01Z</DateUtc></FrequencyChange></FrequencyChanges></Clock>\n";EXP2.2_290421-10006-1;60.024;1.0.0.345;1;Chronos;1165484236;Full;3.0.3.80;3.0.3.80;04-30-2021;30/04/2021 12:53;14:53:01;3.0.3.82;2;Chronos;;2;1;2;TESTVV;Generalbloc;;;;pretest;Chronos;28;1;VV_290421/880.png;2;1;28;-20;blocVVstim;listVVTrial;;;;Chronos;0;;0;-1;1180711;200;;0;0;0;1;Chronos;0;0;1180911;300;5;763;1181674;0;1;Chronos;0;0;1181211;0;5;463;1181674;;;;;;;;;;;;;;;;;;;
EXP2.2_290421;10006;1;Chronos;<ChronosDeviceInfo><FriendlyName>MyChronos</FriendlyName><DeviceIndex>1</DeviceIndex><SerialNumber>CHR-04301-1186</SerialNumber><EBNVersion>3.0.3.80</EBNVersion><FirmwareVersion>1.33</FirmwareVersion><APIVersion>1.33</APIVersion><USBHostControllerVersion>2.0</USBHostControllerVersion><USBConnectionRoute>USB#ROOT_HUB20#4&9bd2e8a&0#{f18a0e88-c30c-11d0-8815-00a0c906bed8} + USB#VID_8087&PID_0024#5&3026c139&0&1#{f18a0e88-c30c-11d0-8815-00a0c906bed8}(1) + VID_2266&PID_0007(7)</USBConnectionRoute></ChronosDeviceInfo>;"<?xml version=""1.0""?>\n<Clock xmlns:dt=""urn:schemas-microsoft-com:datatypes""><Description dt:dt=""string"">E-Prime Primary Realtime Clock</Description><StartTime><Timestamp dt:dt=""int"">0</Timestamp><DateUtc dt:dt=""string"">2021-04-30T12:53:01Z</DateUtc></StartTime><FrequencyChanges><FrequencyChange><Frequency dt:dt=""r8"">2435595</Frequency><Timestamp dt:dt=""r8"">1165029495</Timestamp><Current dt:dt=""r8"">0</Current><DateUtc dt:dt=""string"">2021-04-30T12:53:01Z</DateUtc></FrequencyChange></FrequencyChanges></Clock>\n";EXP2.2_290421-10006-1;60.024;1.0.0.345;1;Chronos;1165484236;Full;3.0.3.80;3.0.3.80;04-30-2021;30/04/2021 12:53;14:53:01;3.0.3.82;2;Chronos;;2;1;2;TESTVV;Generalbloc;;;;pretest;Chronos;29;1;VV_290421/890.png;4;1;29;-10;blocVVstim;listVVTrial;;;;Chronos;0;;1;-1;1183193;200;;0;0;0;1;Chronos;0;0;1183393;300;5;1058;1184451;0;1;Chronos;0;0;1183693;0;5;758;1184451;;;;;;;;;;;;;;;;;;;
EXP2.2_290421;10006;1;Chronos;<ChronosDeviceInfo><FriendlyName>MyChronos</FriendlyName><DeviceIndex>1</DeviceIndex><SerialNumber>CHR-04301-1186</SerialNumber><EBNVersion>3.0.3.80</EBNVersion><FirmwareVersion>1.33</FirmwareVersion><APIVersion>1.33</APIVersion><USBHostControllerVersion>2.0</USBHostControllerVersion><USBConnectionRoute>USB#ROOT_HUB20#4&9bd2e8a&0#{f18a0e88-c30c-11d0-8815-00a0c906bed8} + USB#VID_8087&PID_0024#5&3026c139&0&1#{f18a0e88-c30c-11d0-8815-00a0c906bed8}(1) + VID_2266&PID_0007(7)</USBConnectionRoute></ChronosDeviceInfo>;"<?xml version=""1.0""?>\n<Clock xmlns:dt=""urn:schemas-microsoft-com:datatypes""><Description dt:dt=""string"">E-Prime Primary Realtime Clock</Description><StartTime><Timestamp dt:dt=""int"">0</Timestamp><DateUtc dt:dt=""string"">2021-04-30T12:53:01Z</DateUtc></StartTime><FrequencyChanges><FrequencyChange><Frequency dt:dt=""r8"">2435595</Frequency><Timestamp dt:dt=""r8"">1165029495</Timestamp><Current dt:dt=""r8"">0</Current><DateUtc dt:dt=""string"">2021-04-30T12:53:01Z</DateUtc></FrequencyChange></FrequencyChanges></Clock>\n";EXP2.2_290421-10006-1;60.024;1.0.0.345;1;Chronos;1165484236;Full;3.0.3.80;3.0.3.80;04-30-2021;30/04/2021 12:53;14:53:01;3.0.3.82;2;Chronos;;2;1;2;TESTVV;Generalbloc;;;;pretest;Chronos;30;1;VV_290421/875.png;1;1;30;-25;blocVVstim;listVVTrial;;;;Chronos;0;;0;0;1185976;199;;0;0;1;1;Chronos;1;-1;1186175;300;1;427;1186602;1;1;Chronos;1;0;1186475;0;1;127;1186602;;;;;;;;;;;;;;;;;;;
EXP2.2_290421;10006;1;Chronos;<ChronosDeviceInfo><FriendlyName>MyChronos</FriendlyName><DeviceIndex>1</DeviceIndex><SerialNumber>CHR-04301-1186</SerialNumber><EBNVersion>3.0.3.80</EBNVersion><FirmwareVersion>1.33</FirmwareVersion><APIVersion>1.33</APIVersion><USBHostControllerVersion>2.0</USBHostControllerVersion><USBConnectionRoute>USB#ROOT_HUB20#4&9bd2e8a&0#{f18a0e88-c30c-11d0-8815-00a0c906bed8} + USB#VID_8087&PID_0024#5&3026c139&0&1#{f18a0e88-c30c-11d0-8815-00a0c906bed8}(1) + VID_2266&PID_0007(7)</USBConnectionRoute></ChronosDeviceInfo>;"<?xml version=""1.0""?>\n<Clock xmlns:dt=""urn:schemas-microsoft-com:datatypes""><Description dt:dt=""string"">E-Prime Primary Realtime Clock</Description><StartTime><Timestamp dt:dt=""int"">0</Timestamp><DateUtc dt:dt=""string"">2021-04-30T12:53:01Z</DateUtc></StartTime><FrequencyChanges><FrequencyChange><Frequency dt:dt=""r8"">2435595</Frequency><Timestamp dt:dt=""r8"">1165029495</Timestamp><Current dt:dt=""r8"">0</Current><DateUtc dt:dt=""string"">2021-04-30T12:53:01Z</DateUtc></FrequencyChange></FrequencyChanges></Clock>\n";EXP2.2_290421-10006-1;60.024;1.0.0.345;1;Chronos;1165484236;Full;3.0.3.80;3.0.3.80;04-30-2021;30/04/2021 12:53;14:53:01;3.0.3.82;2;Chronos;;2;1;2;TESTVV;Generalbloc;;;;pretest;Chronos;31;1;VV_290421/875.png;1;1;31;-25;blocVVstim;listVVTrial;;;;Chronos;0;;0;0;1188125;200;;0;0;1;1;Chronos;0;0;1188325;300;1;600;1188925;1;1;Chronos;0;0;1188625;0;1;300;1188925;;;;;;;;;;;;;;;;;;;
EXP2.2_290421;10006;1;Chronos;<ChronosDeviceInfo><FriendlyName>MyChronos</FriendlyName><DeviceIndex>1</DeviceIndex><SerialNumber>CHR-04301-1186</SerialNumber><EBNVersion>3.0.3.80</EBNVersion><FirmwareVersion>1.33</FirmwareVersion><APIVersion>1.33</APIVersion><USBHostControllerVersion>2.0</USBHostControllerVersion><USBConnectionRoute>USB#ROOT_HUB20#4&9bd2e8a&0#{f18a0e88-c30c-11d0-8815-00a0c906bed8} + USB#VID_8087&PID_0024#5&3026c139&0&1#{f18a0e88-c30c-11d0-8815-00a0c906bed8}(1) + VID_2266&PID_0007(7)</USBConnectionRoute></ChronosDeviceInfo>;"<?xml version=""1.0""?>\n<Clock xmlns:dt=""urn:schemas-microsoft-com:datatypes""><Description dt:dt=""string"">E-Prime Primary Realtime Clock</Description><StartTime><Timestamp dt:dt=""int"">0</Timestamp><DateUtc dt:dt=""string"">2021-04-30T12:53:01Z</DateUtc></StartTime><FrequencyChanges><FrequencyChange><Frequency dt:dt=""r8"">2435595</Frequency><Timestamp dt:dt=""r8"">1165029495</Timestamp><Current dt:dt=""r8"">0</Current><DateUtc dt:dt=""string"">2021-04-30T12:53:01Z</DateUtc></FrequencyChange></FrequencyChanges></Clock>\n";EXP2.2_290421-10006-1;60.024;1.0.0.345;1;Chronos;1165484236;Full;3.0.3.80;3.0.3.80;04-30-2021;30/04/2021 12:53;14:53:01;3.0.3.82;2;Chronos;;2;1;2;TESTVV;Generalbloc;;;;pretest;Chronos;32;15;VV_290421/900.png;6;1;32;0;blocVVstim;listVVTrial;;;;Chronos;0;;1;-1;1190440;200;;0;0;0;15;Chronos;1;0;1190640;300;5;792;1191432;0;15;Chronos;0;0;1190940;0;5;492;1191432;;;;;;;;;;;;;;;;;;;
EXP2.2_290421;10006;1;Chronos;<ChronosDeviceInfo><FriendlyName>MyChronos</FriendlyName><DeviceIndex>1</DeviceIndex><SerialNumber>CHR-04301-1186</SerialNumber><EBNVersion>3.0.3.80</EBNVersion><FirmwareVersion>1.33</FirmwareVersion><APIVersion>1.33</APIVersion><USBHostControllerVersion>2.0</USBHostControllerVersion><USBConnectionRoute>USB#ROOT_HUB20#4&9bd2e8a&0#{f18a0e88-c30c-11d0-8815-00a0c906bed8} + USB#VID_8087&PID_0024#5&3026c139&0&1#{f18a0e88-c30c-11d0-8815-00a0c906bed8}(1) + VID_2266&PID_0007(7)</USBConnectionRoute></ChronosDeviceInfo>;"<?xml version=""1.0""?>\n<Clock xmlns:dt=""urn:schemas-microsoft-com:datatypes""><Description dt:dt=""string"">E-Prime Primary Realtime Clock</Description><StartTime><Timestamp dt:dt=""int"">0</Timestamp><DateUtc dt:dt=""string"">2021-04-30T12:53:01Z</DateUtc></StartTime><FrequencyChanges><FrequencyChange><Frequency dt:dt=""r8"">2435595</Frequency><Timestamp dt:dt=""r8"">1165029495</Timestamp><Current dt:dt=""r8"">0</Current><DateUtc dt:dt=""string"">2021-04-30T12:53:01Z</DateUtc></FrequencyChange></FrequencyChanges></Clock>\n";EXP2.2_290421-10006-1;60.024;1.0.0.345;1;Chronos;1165484236;Full;3.0.3.80;3.0.3.80;04-30-2021;30/04/2021 12:53;14:53:01;3.0.3.82;2;Chronos;;2;1;2;TESTVV;Generalbloc;;;;pretest;Chronos;33;1;VV_290421/895.png;5;1;33;-5;blocVVstim;listVVTrial;;;;Chronos;0;;0;-1;1192956;200;;0;0;0;1;Chronos;0;0;1193156;300;5;1185;1194341;0;1;Chronos;0;0;1193456;0;5;885;1194341;;;;;;;;;;;;;;;;;;;
EXP2.2_290421;10006;1;Chronos;<ChronosDeviceInfo><FriendlyName>MyChronos</FriendlyName><DeviceIndex>1</DeviceIndex><SerialNumber>CHR-04301-1186</SerialNumber><EBNVersion>3.0.3.80</EBNVersion><FirmwareVersion>1.33</FirmwareVersion><APIVersion>1.33</APIVersion><USBHostControllerVersion>2.0</USBHostControllerVersion><USBConnectionRoute>USB#ROOT_HUB20#4&9bd2e8a&0#{f18a0e88-c30c-11d0-8815-00a0c906bed8} + USB#VID_8087&PID_0024#5&3026c139&0&1#{f18a0e88-c30c-11d0-8815-00a0c906bed8}(1) + VID_2266&PID_0007(7)</USBConnectionRoute></ChronosDeviceInfo>;"<?xml version=""1.0""?>\n<Clock xmlns:dt=""urn:schemas-microsoft-com:datatypes""><Description dt:dt=""string"">E-Prime Primary Realtime Clock</Description><StartTime><Timestamp dt:dt=""int"">0</Timestamp><DateUtc dt:dt=""string"">2021-04-30T12:53:01Z</DateUtc></StartTime><FrequencyChanges><FrequencyChange><Frequency dt:dt=""r8"">2435595</Frequency><Timestamp dt:dt=""r8"">1165029495</Timestamp><Current dt:dt=""r8"">0</Current><DateUtc dt:dt=""string"">2021-04-30T12:53:01Z</DateUtc></FrequencyChange></FrequencyChanges></Clock>\n";EXP2.2_290421-10006-1;60.024;1.0.0.345;1;Chronos;1165484236;Full;3.0.3.80;3.0.3.80;04-30-2021;30/04/2021 12:53;14:53:01;3.0.3.82;2;Chronos;;2;1;2;TESTVV;Generalbloc;;;;pretest;Chronos;34;1;VV_290421/890.png;4;1;34;-10;blocVVstim;listVVTrial;;;;Chronos;0;;0;-1;1195855;200;;0;0;0;1;Chronos;0;0;1196055;300;5;1162;1197217;0;1;Chronos;0;0;1196355;0;5;862;1197217;;;;;;;;;;;;;;;;;;;
EXP2.2_290421;10006;1;Chronos;<ChronosDeviceInfo><FriendlyName>MyChronos</FriendlyName><DeviceIndex>1</DeviceIndex><SerialNumber>CHR-04301-1186</SerialNumber><EBNVersion>3.0.3.80</EBNVersion><FirmwareVersion>1.33</FirmwareVersion><APIVersion>1.33</APIVersion><USBHostControllerVersion>2.0</USBHostControllerVersion><USBConnectionRoute>USB#ROOT_HUB20#4&9bd2e8a&0#{f18a0e88-c30c-11d0-8815-00a0c906bed8} + USB#VID_8087&PID_0024#5&3026c139&0&1#{f18a0e88-c30c-11d0-8815-00a0c906bed8}(1) + VID_2266&PID_0007(7)</USBConnectionRoute></ChronosDeviceInfo>;"<?xml version=""1.0""?>\n<Clock xmlns:dt=""urn:schemas-microsoft-com:datatypes""><Description dt:dt=""string"">E-Prime Primary Realtime Clock</Description><StartTime><Timestamp dt:dt=""int"">0</Timestamp><DateUtc dt:dt=""string"">2021-04-30T12:53:01Z</DateUtc></StartTime><FrequencyChanges><FrequencyChange><Frequency dt:dt=""r8"">2435595</Frequency><Timestamp dt:dt=""r8"">1165029495</Timestamp><Current dt:dt=""r8"">0</Current><DateUtc dt:dt=""string"">2021-04-30T12:53:01Z</DateUtc></FrequencyChange></FrequencyChanges></Clock>\n";EXP2.2_290421-10006-1;60.024;1.0.0.345;1;Chronos;1165484236;Full;3.0.3.80;3.0.3.80;04-30-2021;30/04/2021 12:53;14:53:01;3.0.3.82;2;Chronos;;2;1;2;TESTVV;Generalbloc;;;;pretest;Chronos;35;5;VV_290421/920.png;10;1;35;20;blocVVstim;listVVTrial;;;;Chronos;0;;0;-1;1198737;200;;0;0;1;5;Chronos;0;0;1198937;300;5;1768;1200705;1;5;Chronos;0;0;1199237;0;5;1468;1200705;;;;;;;;;;;;;;;;;;;
EXP2.2_290421;10006;1;Chronos;<ChronosDeviceInfo><FriendlyName>MyChronos</FriendlyName><DeviceIndex>1</DeviceIndex><SerialNumber>CHR-04301-1186</SerialNumber><EBNVersion>3.0.3.80</EBNVersion><FirmwareVersion>1.33</FirmwareVersion><APIVersion>1.33</APIVersion><USBHostControllerVersion>2.0</USBHostControllerVersion><USBConnectionRoute>USB#ROOT_HUB20#4&9bd2e8a&0#{f18a0e88-c30c-11d0-8815-00a0c906bed8} + USB#VID_8087&PID_0024#5&3026c139&0&1#{f18a0e88-c30c-11d0-8815-00a0c906bed8}(1) + VID_2266&PID_0007(7)</USBConnectionRoute></ChronosDeviceInfo>;"<?xml version=""1.0""?>\n<Clock xmlns:dt=""urn:schemas-microsoft-com:datatypes""><Description dt:dt=""string"">E-Prime Primary Realtime Clock</Description><StartTime><Timestamp dt:dt=""int"">0</Timestamp><DateUtc dt:dt=""string"">2021-04-30T12:53:01Z</DateUtc></StartTime><FrequencyChanges><FrequencyChange><Frequency dt:dt=""r8"">2435595</Frequency><Timestamp dt:dt=""r8"">1165029495</Timestamp><Current dt:dt=""r8"">0</Current><DateUtc dt:dt=""string"">2021-04-30T12:53:01Z</DateUtc></FrequencyChange></FrequencyChanges></Clock>\n";EXP2.2_290421-10006-1;60.024;1.0.0.345;1;Chronos;1165484236;Full;3.0.3.80;3.0.3.80;04-30-2021;30/04/2021 12:53;14:53:01;3.0.3.82;2;Chronos;;2;1;2;TESTVV;Generalbloc;;;;pretest;Chronos;36;1;VV_290421/885.png;3;1;36;-15;blocVVstim;listVVTrial;;;;Chronos;0;;0;0;1202236;200;;0;0;1;1;Chronos;0;0;1202436;300;1;739;1203175;1;1;Chronos;0;0;1202736;0;1;439;1203175;;;;;;;;;;;;;;;;;;;
EXP2.2_290421;10006;1;Chronos;<ChronosDeviceInfo><FriendlyName>MyChronos</FriendlyName><DeviceIndex>1</DeviceIndex><SerialNumber>CHR-04301-1186</SerialNumber><EBNVersion>3.0.3.80</EBNVersion><FirmwareVersion>1.33</FirmwareVersion><APIVersion>1.33</APIVersion><USBHostControllerVersion>2.0</USBHostControllerVersion><USBConnectionRoute>USB#ROOT_HUB20#4&9bd2e8a&0#{f18a0e88-c30c-11d0-8815-00a0c906bed8} + USB#VID_8087&PID_0024#5&3026c139&0&1#{f18a0e88-c30c-11d0-8815-00a0c906bed8}(1) + VID_2266&PID_0007(7)</USBConnectionRoute></ChronosDeviceInfo>;"<?xml version=""1.0""?>\n<Clock xmlns:dt=""urn:schemas-microsoft-com:datatypes""><Description dt:dt=""string"">E-Prime Primary Realtime Clock</Description><StartTime><Timestamp dt:dt=""int"">0</Timestamp><DateUtc dt:dt=""string"">2021-04-30T12:53:01Z</DateUtc></StartTime><FrequencyChanges><FrequencyChange><Frequency dt:dt=""r8"">2435595</Frequency><Timestamp dt:dt=""r8"">1165029495</Timestamp><Current dt:dt=""r8"">0</Current><DateUtc dt:dt=""string"">2021-04-30T12:53:01Z</DateUtc></FrequencyChange></FrequencyChanges></Clock>\n";EXP2.2_290421-10006-1;60.024;1.0.0.345;1;Chronos;1165484236;Full;3.0.3.80;3.0.3.80;04-30-2021;30/04/2021 12:53;14:53:01;3.0.3.82;2;Chronos;;2;1;2;TESTVV;Generalbloc;;;;pretest;Chronos;37;1;VV_290421/880.png;2;1;37;-20;blocVVstim;listVVTrial;;;;Chronos;0;;1;-1;1204701;200;;0;0;1;1;Chronos;0;0;1204901;300;1;644;1205545;1;1;Chronos;0;0;1205201;0;1;344;1205545;;;;;;;;;;;;;;;;;;;
EXP2.2_290421;10006;1;Chronos;<ChronosDeviceInfo><FriendlyName>MyChronos</FriendlyName><DeviceIndex>1</DeviceIndex><SerialNumber>CHR-04301-1186</SerialNumber><EBNVersion>3.0.3.80</EBNVersion><FirmwareVersion>1.33</FirmwareVersion><APIVersion>1.33</APIVersion><USBHostControllerVersion>2.0</USBHostControllerVersion><USBConnectionRoute>USB#ROOT_HUB20#4&9bd2e8a&0#{f18a0e88-c30c-11d0-8815-00a0c906bed8} + USB#VID_8087&PID_0024#5&3026c139&0&1#{f18a0e88-c30c-11d0-8815-00a0c906bed8}(1) + VID_2266&PID_0007(7)</USBConnectionRoute></ChronosDeviceInfo>;"<?xml version=""1.0""?>\n<Clock xmlns:dt=""urn:schemas-microsoft-com:datatypes""><Description dt:dt=""string"">E-Prime Primary Realtime Clock</Description><StartTime><Timestamp dt:dt=""int"">0</Timestamp><DateUtc dt:dt=""string"">2021-04-30T12:53:01Z</DateUtc></StartTime><FrequencyChanges><FrequencyChange><Frequency dt:dt=""r8"">2435595</Frequency><Timestamp dt:dt=""r8"">1165029495</Timestamp><Current dt:dt=""r8"">0</Current><DateUtc dt:dt=""string"">2021-04-30T12:53:01Z</DateUtc></FrequencyChange></FrequencyChanges></Clock>\n";EXP2.2_290421-10006-1;60.024;1.0.0.345;1;Chronos;1165484236;Full;3.0.3.80;3.0.3.80;04-30-2021;30/04/2021 12:53;14:53:01;3.0.3.82;2;Chronos;;2;1;2;TESTVV;Generalbloc;;;;pretest;Chronos;38;1;VV_290421/875.png;1;1;38;-25;blocVVstim;listVVTrial;;;;Chronos;0;;0;-1;1207067;200;;0;0;0;1;Chronos;0;0;1207267;300;5;1094;1208361;0;1;Chronos;0;0;1207567;0;5;794;1208361;;;;;;;;;;;;;;;;;;;
EXP2.2_290421;10006;1;Chronos;<ChronosDeviceInfo><FriendlyName>MyChronos</FriendlyName><DeviceIndex>1</DeviceIndex><SerialNumber>CHR-04301-1186</SerialNumber><EBNVersion>3.0.3.80</EBNVersion><FirmwareVersion>1.33</FirmwareVersion><APIVersion>1.33</APIVersion><USBHostControllerVersion>2.0</USBHostControllerVersion><USBConnectionRoute>USB#ROOT_HUB20#4&9bd2e8a&0#{f18a0e88-c30c-11d0-8815-00a0c906bed8} + USB#VID_8087&PID_0024#5&3026c139&0&1#{f18a0e88-c30c-11d0-8815-00a0c906bed8}(1) + VID_2266&PID_0007(7)</USBConnectionRoute></ChronosDeviceInfo>;"<?xml version=""1.0""?>\n<Clock xmlns:dt=""urn:schemas-microsoft-com:datatypes""><Description dt:dt=""string"">E-Prime Primary Realtime Clock</Description><StartTime><Timestamp dt:dt=""int"">0</Timestamp><DateUtc dt:dt=""string"">2021-04-30T12:53:01Z</DateUtc></StartTime><FrequencyChanges><FrequencyChange><Frequency dt:dt=""r8"">2435595</Frequency><Timestamp dt:dt=""r8"">1165029495</Timestamp><Current dt:dt=""r8"">0</Current><DateUtc dt:dt=""string"">2021-04-30T12:53:01Z</DateUtc></FrequencyChange></FrequencyChanges></Clock>\n";EXP2.2_290421-10006-1;60.024;1.0.0.345;1;Chronos;1165484236;Full;3.0.3.80;3.0.3.80;04-30-2021;30/04/2021 12:53;14:53:01;3.0.3.82;2;Chronos;;2;1;2;TESTVV;Generalbloc;;;;pretest;Chronos;39;5;VV_290421/920.png;10;1;39;20;blocVVstim;listVVTrial;;;;Chronos;0;;0;0;1209883;200;;0;0;1;5;Chronos;0;0;1210083;299;5;855;1210938;1;5;Chronos;1;-1;1210382;0;5;556;1210938;;;;;;;;;;;;;;;;;;;
EXP2.2_290421;10006;1;Chronos;<ChronosDeviceInfo><FriendlyName>MyChronos</FriendlyName><DeviceIndex>1</DeviceIndex><SerialNumber>CHR-04301-1186</SerialNumber><EBNVersion>3.0.3.80</EBNVersion><FirmwareVersion>1.33</FirmwareVersion><APIVersion>1.33</APIVersion><USBHostControllerVersion>2.0</USBHostControllerVersion><USBConnectionRoute>USB#ROOT_HUB20#4&9bd2e8a&0#{f18a0e88-c30c-11d0-8815-00a0c906bed8} + USB#VID_8087&PID_0024#5&3026c139&0&1#{f18a0e88-c30c-11d0-8815-00a0c906bed8}(1) + VID_2266&PID_0007(7)</USBConnectionRoute></ChronosDeviceInfo>;"<?xml version=""1.0""?>\n<Clock xmlns:dt=""urn:schemas-microsoft-com:datatypes""><Description dt:dt=""string"">E-Prime Primary Realtime Clock</Description><StartTime><Timestamp dt:dt=""int"">0</Timestamp><DateUtc dt:dt=""string"">2021-04-30T12:53:01Z</DateUtc></StartTime><FrequencyChanges><FrequencyChange><Frequency dt:dt=""r8"">2435595</Frequency><Timestamp dt:dt=""r8"">1165029495</Timestamp><Current dt:dt=""r8"">0</Current><DateUtc dt:dt=""string"">2021-04-30T12:53:01Z</DateUtc></FrequencyChange></FrequencyChanges></Clock>\n";EXP2.2_290421-10006-1;60.024;1.0.0.345;1;Chronos;1165484236;Full;3.0.3.80;3.0.3.80;04-30-2021;30/04/2021 12:53;14:53:01;3.0.3.82;2;Chronos;;2;1;2;TESTVV;Generalbloc;;;;pretest;Chronos;40;5;VV_290421/915.png;9;1;40;15;blocVVstim;listVVTrial;;;;Chronos;0;;0;-1;1212465;200;;0;0;1;5;Chronos;0;0;1212665;300;5;574;1213239;1;5;Chronos;0;0;1212965;0;5;274;1213239;;;;;;;;;;;;;;;;;;;
EXP2.2_290421;10006;1;Chronos;<ChronosDeviceInfo><FriendlyName>MyChronos</FriendlyName><DeviceIndex>1</DeviceIndex><SerialNumber>CHR-04301-1186</SerialNumber><EBNVersion>3.0.3.80</EBNVersion><FirmwareVersion>1.33</FirmwareVersion><APIVersion>1.33</APIVersion><USBHostControllerVersion>2.0</USBHostControllerVersion><USBConnectionRoute>USB#ROOT_HUB20#4&9bd2e8a&0#{f18a0e88-c30c-11d0-8815-00a0c906bed8} + USB#VID_8087&PID_0024#5&3026c139&0&1#{f18a0e88-c30c-11d0-8815-00a0c906bed8}(1) + VID_2266&PID_0007(7)</USBConnectionRoute></ChronosDeviceInfo>;"<?xml version=""1.0""?>\n<Clock xmlns:dt=""urn:schemas-microsoft-com:datatypes""><Description dt:dt=""string"">E-Prime Primary Realtime Clock</Description><StartTime><Timestamp dt:dt=""int"">0</Timestamp><DateUtc dt:dt=""string"">2021-04-30T12:53:01Z</DateUtc></StartTime><FrequencyChanges><FrequencyChange><Frequency dt:dt=""r8"">2435595</Frequency><Timestamp dt:dt=""r8"">1165029495</Timestamp><Current dt:dt=""r8"">0</Current><DateUtc dt:dt=""string"">2021-04-30T12:53:01Z</DateUtc></FrequencyChange></FrequencyChanges></Clock>\n";EXP2.2_290421-10006-1;60.024;1.0.0.345;1;Chronos;1165484236;Full;3.0.3.80;3.0.3.80;04-30-2021;30/04/2021 12:53;14:53:01;3.0.3.82;2;Chronos;;2;1;2;TESTVV;Generalbloc;;;;pretest;Chronos;41;5;VV_290421/905.png;7;1;41;5;blocVVstim;listVVTrial;;;;Chronos;0;;0;-1;1214764;200;;0;0;1;5;Chronos;0;0;1214964;300;5;578;1215542;1;5;Chronos;0;0;1215264;0;5;278;1215542;;;;;;;;;;;;;;;;;;;
EXP2.2_290421;10006;1;Chronos;<ChronosDeviceInfo><FriendlyName>MyChronos</FriendlyName><DeviceIndex>1</DeviceIndex><SerialNumber>CHR-04301-1186</SerialNumber><EBNVersion>3.0.3.80</EBNVersion><FirmwareVersion>1.33</FirmwareVersion><APIVersion>1.33</APIVersion><USBHostControllerVersion>2.0</USBHostControllerVersion><USBConnectionRoute>USB#ROOT_HUB20#4&9bd2e8a&0#{f18a0e88-c30c-11d0-8815-00a0c906bed8} + USB#VID_8087&PID_0024#5&3026c139&0&1#{f18a0e88-c30c-11d0-8815-00a0c906bed8}(1) + VID_2266&PID_0007(7)</USBConnectionRoute></ChronosDeviceInfo>;"<?xml version=""1.0""?>\n<Clock xmlns:dt=""urn:schemas-microsoft-com:datatypes""><Description dt:dt=""string"">E-Prime Primary Realtime Clock</Description><StartTime><Timestamp dt:dt=""int"">0</Timestamp><DateUtc dt:dt=""string"">2021-04-30T12:53:01Z</DateUtc></StartTime><FrequencyChanges><FrequencyChange><Frequency dt:dt=""r8"">2435595</Frequency><Timestamp dt:dt=""r8"">1165029495</Timestamp><Current dt:dt=""r8"">0</Current><DateUtc dt:dt=""string"">2021-04-30T12:53:01Z</DateUtc></FrequencyChange></FrequencyChanges></Clock>\n";EXP2.2_290421-10006-1;60.024;1.0.0.345;1;Chronos;1165484236;Full;3.0.3.80;3.0.3.80;04-30-2021;30/04/2021 12:53;14:53:01;3.0.3.82;2;Chronos;;2;1;2;TESTVV;Generalbloc;;;;pretest;Chronos;42;5;VV_290421/905.png;7;1;42;5;blocVVstim;listVVTrial;;;;Chronos;0;;0;-1;1217063;200;;0;0;1;5;Chronos;0;0;1217263;300;5;764;1218027;1;5;Chronos;0;0;1217563;0;5;464;1218027;;;;;;;;;;;;;;;;;;;
EXP2.2_290421;10006;1;Chronos;<ChronosDeviceInfo><FriendlyName>MyChronos</FriendlyName><DeviceIndex>1</DeviceIndex><SerialNumber>CHR-04301-1186</SerialNumber><EBNVersion>3.0.3.80</EBNVersion><FirmwareVersion>1.33</FirmwareVersion><APIVersion>1.33</APIVersion><USBHostControllerVersion>2.0</USBHostControllerVersion><USBConnectionRoute>USB#ROOT_HUB20#4&9bd2e8a&0#{f18a0e88-c30c-11d0-8815-00a0c906bed8} + USB#VID_8087&PID_0024#5&3026c139&0&1#{f18a0e88-c30c-11d0-8815-00a0c906bed8}(1) + VID_2266&PID_0007(7)</USBConnectionRoute></ChronosDeviceInfo>;"<?xml version=""1.0""?>\n<Clock xmlns:dt=""urn:schemas-microsoft-com:datatypes""><Description dt:dt=""string"">E-Prime Primary Realtime Clock</Description><StartTime><Timestamp dt:dt=""int"">0</Timestamp><DateUtc dt:dt=""string"">2021-04-30T12:53:01Z</DateUtc></StartTime><FrequencyChanges><FrequencyChange><Frequency dt:dt=""r8"">2435595</Frequency><Timestamp dt:dt=""r8"">1165029495</Timestamp><Current dt:dt=""r8"">0</Current><DateUtc dt:dt=""string"">2021-04-30T12:53:01Z</DateUtc></FrequencyChange></FrequencyChanges></Clock>\n";EXP2.2_290421-10006-1;60.024;1.0.0.345;1;Chronos;1165484236;Full;3.0.3.80;3.0.3.80;04-30-2021;30/04/2021 12:53;14:53:01;3.0.3.82;2;Chronos;;2;1;2;TESTVV;Generalbloc;;;;pretest;Chronos;43;1;VV_290421/885.png;3;1;43;-15;blocVVstim;listVVTrial;;;;Chronos;0;;1;-1;1219545;200;;0;0;1;1;Chronos;1;0;1219745;300;1;591;1220336;1;1;Chronos;0;0;1220045;0;1;291;1220336;;;;;;;;;;;;;;;;;;;
EXP2.2_290421;10006;1;Chronos;<ChronosDeviceInfo><FriendlyName>MyChronos</FriendlyName><DeviceIndex>1</DeviceIndex><SerialNumber>CHR-04301-1186</SerialNumber><EBNVersion>3.0.3.80</EBNVersion><FirmwareVersion>1.33</FirmwareVersion><APIVersion>1.33</APIVersion><USBHostControllerVersion>2.0</USBHostControllerVersion><USBConnectionRoute>USB#ROOT_HUB20#4&9bd2e8a&0#{f18a0e88-c30c-11d0-8815-00a0c906bed8} + USB#VID_8087&PID_0024#5&3026c139&0&1#{f18a0e88-c30c-11d0-8815-00a0c906bed8}(1) + VID_2266&PID_0007(7)</USBConnectionRoute></ChronosDeviceInfo>;"<?xml version=""1.0""?>\n<Clock xmlns:dt=""urn:schemas-microsoft-com:datatypes""><Description dt:dt=""string"">E-Prime Primary Realtime Clock</Description><StartTime><Timestamp dt:dt=""int"">0</Timestamp><DateUtc dt:dt=""string"">2021-04-30T12:53:01Z</DateUtc></StartTime><FrequencyChanges><FrequencyChange><Frequency dt:dt=""r8"">2435595</Frequency><Timestamp dt:dt=""r8"">1165029495</Timestamp><Current dt:dt=""r8"">0</Current><DateUtc dt:dt=""string"">2021-04-30T12:53:01Z</DateUtc></FrequencyChange></FrequencyChanges></Clock>\n";EXP2.2_290421-10006-1;60.024;1.0.0.345;1;Chronos;1165484236;Full;3.0.3.80;3.0.3.80;04-30-2021;30/04/2021 12:53;14:53:01;3.0.3.82;2;Chronos;;2;1;2;TESTVV;Generalbloc;;;;pretest;Chronos;44;5;VV_290421/905.png;7;1;44;5;blocVVstim;listVVTrial;;;;Chronos;0;;0;-1;1221861;200;;0;0;1;5;Chronos;0;0;1222061;300;5;636;1222697;1;5;Chronos;0;0;1222361;0;5;336;1222697;;;;;;;;;;;;;;;;;;;
EXP2.2_290421;10006;1;Chronos;<ChronosDeviceInfo><FriendlyName>MyChronos</FriendlyName><DeviceIndex>1</DeviceIndex><SerialNumber>CHR-04301-1186</SerialNumber><EBNVersion>3.0.3.80</EBNVersion><FirmwareVersion>1.33</FirmwareVersion><APIVersion>1.33</APIVersion><USBHostControllerVersion>2.0</USBHostControllerVersion><USBConnectionRoute>USB#ROOT_HUB20#4&9bd2e8a&0#{f18a0e88-c30c-11d0-8815-00a0c906bed8} + USB#VID_8087&PID_0024#5&3026c139&0&1#{f18a0e88-c30c-11d0-8815-00a0c906bed8}(1) + VID_2266&PID_0007(7)</USBConnectionRoute></ChronosDeviceInfo>;"<?xml version=""1.0""?>\n<Clock xmlns:dt=""urn:schemas-microsoft-com:datatypes""><Description dt:dt=""string"">E-Prime Primary Realtime Clock</Description><StartTime><Timestamp dt:dt=""int"">0</Timestamp><DateUtc dt:dt=""string"">2021-04-30T12:53:01Z</DateUtc></StartTime><FrequencyChanges><FrequencyChange><Frequency dt:dt=""r8"">2435595</Frequency><Timestamp dt:dt=""r8"">1165029495</Timestamp><Current dt:dt=""r8"">0</Current><DateUtc dt:dt=""string"">2021-04-30T12:53:01Z</DateUtc></FrequencyChange></FrequencyChanges></Clock>\n";EXP2.2_290421-10006-1;60.024;1.0.0.345;1;Chronos;1165484236;Full;3.0.3.80;3.0.3.80;04-30-2021;30/04/2021 12:53;14:53:01;3.0.3.82;2;Chronos;;2;1;2;TESTVV;Generalbloc;;;;pretest;Chronos;45;5;VV_290421/925.png;11;1;45;25;blocVVstim;listVVTrial;;;;Chronos;0;;0;-1;1224227;200;;0;0;1;5;Chronos;0;0;1224427;300;5;485;1224912;1;5;Chronos;0;0;1224727;0;5;185;1224912;;;;;;;;;;;;;;;;;;;
EXP2.2_290421;10006;1;Chronos;<ChronosDeviceInfo><FriendlyName>MyChronos</FriendlyName><DeviceIndex>1</DeviceIndex><SerialNumber>CHR-04301-1186</SerialNumber><EBNVersion>3.0.3.80</EBNVersion><FirmwareVersion>1.33</FirmwareVersion><APIVersion>1.33</APIVersion><USBHostControllerVersion>2.0</USBHostControllerVersion><USBConnectionRoute>USB#ROOT_HUB20#4&9bd2e8a&0#{f18a0e88-c30c-11d0-8815-00a0c906bed8} + USB#VID_8087&PID_0024#5&3026c139&0&1#{f18a0e88-c30c-11d0-8815-00a0c906bed8}(1) + VID_2266&PID_0007(7)</USBConnectionRoute></ChronosDeviceInfo>;"<?xml version=""1.0""?>\n<Clock xmlns:dt=""urn:schemas-microsoft-com:datatypes""><Description dt:dt=""string"">E-Prime Primary Realtime Clock</Description><StartTime><Timestamp dt:dt=""int"">0</Timestamp><DateUtc dt:dt=""string"">2021-04-30T12:53:01Z</DateUtc></StartTime><FrequencyChanges><FrequencyChange><Frequency dt:dt=""r8"">2435595</Frequency><Timestamp dt:dt=""r8"">1165029495</Timestamp><Current dt:dt=""r8"">0</Current><DateUtc dt:dt=""string"">2021-04-30T12:53:01Z</DateUtc></FrequencyChange></FrequencyChanges></Clock>\n";EXP2.2_290421-10006-1;60.024;1.0.0.345;1;Chronos;1165484236;Full;3.0.3.80;3.0.3.80;04-30-2021;30/04/2021 12:53;14:53:01;3.0.3.82;2;Chronos;;2;1;2;TESTVV;Generalbloc;;;;pretest;Chronos;46;5;VV_290421/915.png;9;1;46;15;blocVVstim;listVVTrial;;;;Chronos;0;;0;-1;1226426;200;;0;0;1;5;Chronos;0;0;1226626;300;5;507;1227133;1;5;Chronos;0;0;1226926;0;5;207;1227133;;;;;;;;;;;;;;;;;;;
EXP2.2_290421;10006;1;Chronos;<ChronosDeviceInfo><FriendlyName>MyChronos</FriendlyName><DeviceIndex>1</DeviceIndex><SerialNumber>CHR-04301-1186</SerialNumber><EBNVersion>3.0.3.80</EBNVersion><FirmwareVersion>1.33</FirmwareVersion><APIVersion>1.33</APIVersion><USBHostControllerVersion>2.0</USBHostControllerVersion><USBConnectionRoute>USB#ROOT_HUB20#4&9bd2e8a&0#{f18a0e88-c30c-11d0-8815-00a0c906bed8} + USB#VID_8087&PID_0024#5&3026c139&0&1#{f18a0e88-c30c-11d0-8815-00a0c906bed8}(1) + VID_2266&PID_0007(7)</USBConnectionRoute></ChronosDeviceInfo>;"<?xml version=""1.0""?>\n<Clock xmlns:dt=""urn:schemas-microsoft-com:datatypes""><Description dt:dt=""string"">E-Prime Primary Realtime Clock</Description><StartTime><Timestamp dt:dt=""int"">0</Timestamp><DateUtc dt:dt=""string"">2021-04-30T12:53:01Z</DateUtc></StartTime><FrequencyChanges><FrequencyChange><Frequency dt:dt=""r8"">2435595</Frequency><Timestamp dt:dt=""r8"">1165029495</Timestamp><Current dt:dt=""r8"">0</Current><DateUtc dt:dt=""string"">2021-04-30T12:53:01Z</DateUtc></FrequencyChange></FrequencyChanges></Clock>\n";EXP2.2_290421-10006-1;60.024;1.0.0.345;1;Chronos;1165484236;Full;3.0.3.80;3.0.3.80;04-30-2021;30/04/2021 12:53;14:53:01;3.0.3.82;2;Chronos;;2;1;2;TESTVV;Generalbloc;;;;pretest;Chronos;47;5;VV_290421/915.png;9;1;47;15;blocVVstim;listVVTrial;;;;Chronos;0;;0;0;1228659;199;;0;0;1;5;Chronos;1;-1;1228858;300;5;596;1229454;1;5;Chronos;0;0;1229158;0;5;296;1229454;;;;;;;;;;;;;;;;;;;
EXP2.2_290421;10006;1;Chronos;<ChronosDeviceInfo><FriendlyName>MyChronos</FriendlyName><DeviceIndex>1</DeviceIndex><SerialNumber>CHR-04301-1186</SerialNumber><EBNVersion>3.0.3.80</EBNVersion><FirmwareVersion>1.33</FirmwareVersion><APIVersion>1.33</APIVersion><USBHostControllerVersion>2.0</USBHostControllerVersion><USBConnectionRoute>USB#ROOT_HUB20#4&9bd2e8a&0#{f18a0e88-c30c-11d0-8815-00a0c906bed8} + USB#VID_8087&PID_0024#5&3026c139&0&1#{f18a0e88-c30c-11d0-8815-00a0c906bed8}(1) + VID_2266&PID_0007(7)</USBConnectionRoute></ChronosDeviceInfo>;"<?xml version=""1.0""?>\n<Clock xmlns:dt=""urn:schemas-microsoft-com:datatypes""><Description dt:dt=""string"">E-Prime Primary Realtime Clock</Description><StartTime><Timestamp dt:dt=""int"">0</Timestamp><DateUtc dt:dt=""string"">2021-04-30T12:53:01Z</DateUtc></StartTime><FrequencyChanges><FrequencyChange><Frequency dt:dt=""r8"">2435595</Frequency><Timestamp dt:dt=""r8"">1165029495</Timestamp><Current dt:dt=""r8"">0</Current><DateUtc dt:dt=""string"">2021-04-30T12:53:01Z</DateUtc></FrequencyChange></FrequencyChanges></Clock>\n";EXP2.2_290421-10006-1;60.024;1.0.0.345;1;Chronos;1165484236;Full;3.0.3.80;3.0.3.80;04-30-2021;30/04/2021 12:53;14:53:01;3.0.3.82;2;Chronos;;2;1;2;TESTVV;Generalbloc;;;;pretest;Chronos;48;5;VV_290421/920.png;10;1;48;20;blocVVstim;listVVTrial;;;;Chronos;0;;0;-1;1230974;200;;0;0;1;5;Chronos;0;0;1231174;300;5;696;1231870;1;5;Chronos;0;0;1231474;0;5;396;1231870;;;;;;;;;;;;;;;;;;;
EXP2.2_290421;10006;1;Chronos;<ChronosDeviceInfo><FriendlyName>MyChronos</FriendlyName><DeviceIndex>1</DeviceIndex><SerialNumber>CHR-04301-1186</SerialNumber><EBNVersion>3.0.3.80</EBNVersion><FirmwareVersion>1.33</FirmwareVersion><APIVersion>1.33</APIVersion><USBHostControllerVersion>2.0</USBHostControllerVersion><USBConnectionRoute>USB#ROOT_HUB20#4&9bd2e8a&0#{f18a0e88-c30c-11d0-8815-00a0c906bed8} + USB#VID_8087&PID_0024#5&3026c139&0&1#{f18a0e88-c30c-11d0-8815-00a0c906bed8}(1) + VID_2266&PID_0007(7)</USBConnectionRoute></ChronosDeviceInfo>;"<?xml version=""1.0""?>\n<Clock xmlns:dt=""urn:schemas-microsoft-com:datatypes""><Description dt:dt=""string"">E-Prime Primary Realtime Clock</Description><StartTime><Timestamp dt:dt=""int"">0</Timestamp><DateUtc dt:dt=""string"">2021-04-30T12:53:01Z</DateUtc></StartTime><FrequencyChanges><FrequencyChange><Frequency dt:dt=""r8"">2435595</Frequency><Timestamp dt:dt=""r8"">1165029495</Timestamp><Current dt:dt=""r8"">0</Current><DateUtc dt:dt=""string"">2021-04-30T12:53:01Z</DateUtc></FrequencyChange></FrequencyChanges></Clock>\n";EXP2.2_290421-10006-1;60.024;1.0.0.345;1;Chronos;1165484236;Full;3.0.3.80;3.0.3.80;04-30-2021;30/04/2021 12:53;14:53:01;3.0.3.82;2;Chronos;;2;1;2;TESTVV;Generalbloc;;;;pretest;Chronos;49;5;VV_290421/915.png;9;1;49;15;blocVVstim;listVVTrial;;;;Chronos;0;;0;-1;1233390;200;;0;0;1;5;Chronos;0;0;1233590;300;5;924;1234514;1;5;Chronos;0;0;1233890;0;5;624;1234514;;;;;;;;;;;;;;;;;;;
EXP2.2_290421;10006;1;Chronos;<ChronosDeviceInfo><FriendlyName>MyChronos</FriendlyName><DeviceIndex>1</DeviceIndex><SerialNumber>CHR-04301-1186</SerialNumber><EBNVersion>3.0.3.80</EBNVersion><FirmwareVersion>1.33</FirmwareVersion><APIVersion>1.33</APIVersion><USBHostControllerVersion>2.0</USBHostControllerVersion><USBConnectionRoute>USB#ROOT_HUB20#4&9bd2e8a&0#{f18a0e88-c30c-11d0-8815-00a0c906bed8} + USB#VID_8087&PID_0024#5&3026c139&0&1#{f18a0e88-c30c-11d0-8815-00a0c906bed8}(1) + VID_2266&PID_0007(7)</USBConnectionRoute></ChronosDeviceInfo>;"<?xml version=""1.0""?>\n<Clock xmlns:dt=""urn:schemas-microsoft-com:datatypes""><Description dt:dt=""string"">E-Prime Primary Realtime Clock</Description><StartTime><Timestamp dt:dt=""int"">0</Timestamp><DateUtc dt:dt=""string"">2021-04-30T12:53:01Z</DateUtc></StartTime><FrequencyChanges><FrequencyChange><Frequency dt:dt=""r8"">2435595</Frequency><Timestamp dt:dt=""r8"">1165029495</Timestamp><Current dt:dt=""r8"">0</Current><DateUtc dt:dt=""string"">2021-04-30T12:53:01Z</DateUtc></FrequencyChange></FrequencyChanges></Clock>\n";EXP2.2_290421-10006-1;60.024;1.0.0.345;1;Chronos;1165484236;Full;3.0.3.80;3.0.3.80;04-30-2021;30/04/2021 12:53;14:53:01;3.0.3.82;2;Chronos;;2;1;2;TESTVV;Generalbloc;;;;pretest;Chronos;50;5;VV_290421/920.png;10;1;50;20;blocVVstim;listVVTrial;;;;Chronos;0;;0;-1;1236039;200;;0;0;1;5;Chronos;0;0;1236239;300;5;844;1237083;1;5;Chronos;0;0;1236539;0;5;544;1237083;;;;;;;;;;;;;;;;;;;
EXP2.2_290421;10006;1;Chronos;<ChronosDeviceInfo><FriendlyName>MyChronos</FriendlyName><DeviceIndex>1</DeviceIndex><SerialNumber>CHR-04301-1186</SerialNumber><EBNVersion>3.0.3.80</EBNVersion><FirmwareVersion>1.33</FirmwareVersion><APIVersion>1.33</APIVersion><USBHostControllerVersion>2.0</USBHostControllerVersion><USBConnectionRoute>USB#ROOT_HUB20#4&9bd2e8a&0#{f18a0e88-c30c-11d0-8815-00a0c906bed8} + USB#VID_8087&PID_0024#5&3026c139&0&1#{f18a0e88-c30c-11d0-8815-00a0c906bed8}(1) + VID_2266&PID_0007(7)</USBConnectionRoute></ChronosDeviceInfo>;"<?xml version=""1.0""?>\n<Clock xmlns:dt=""urn:schemas-microsoft-com:datatypes""><Description dt:dt=""string"">E-Prime Primary Realtime Clock</Description><StartTime><Timestamp dt:dt=""int"">0</Timestamp><DateUtc dt:dt=""string"">2021-04-30T12:53:01Z</DateUtc></StartTime><FrequencyChanges><FrequencyChange><Frequency dt:dt=""r8"">2435595</Frequency><Timestamp dt:dt=""r8"">1165029495</Timestamp><Current dt:dt=""r8"">0</Current><DateUtc dt:dt=""string"">2021-04-30T12:53:01Z</DateUtc></FrequencyChange></FrequencyChanges></Clock>\n";EXP2.2_290421-10006-1;60.024;1.0.0.345;1;Chronos;1165484236;Full;3.0.3.80;3.0.3.80;04-30-2021;30/04/2021 12:53;14:53:01;3.0.3.82;2;Chronos;;2;1;2;TESTVV;Generalbloc;;;;pretest;Chronos;51;5;VV_290421/925.png;11;1;51;25;blocVVstim;listVVTrial;;;;Chronos;0;;0;0;1238605;199;;0;0;1;5;Chronos;1;-1;1238804;300;5;974;1239778;1;5;Chronos;1;0;1239104;0;5;674;1239778;;;;;;;;;;;;;;;;;;;
EXP2.2_290421;10006;1;Chronos;<ChronosDeviceInfo><FriendlyName>MyChronos</FriendlyName><DeviceIndex>1</DeviceIndex><SerialNumber>CHR-04301-1186</SerialNumber><EBNVersion>3.0.3.80</EBNVersion><FirmwareVersion>1.33</FirmwareVersion><APIVersion>1.33</APIVersion><USBHostControllerVersion>2.0</USBHostControllerVersion><USBConnectionRoute>USB#ROOT_HUB20#4&9bd2e8a&0#{f18a0e88-c30c-11d0-8815-00a0c906bed8} + USB#VID_8087&PID_0024#5&3026c139&0&1#{f18a0e88-c30c-11d0-8815-00a0c906bed8}(1) + VID_2266&PID_0007(7)</USBConnectionRoute></ChronosDeviceInfo>;"<?xml version=""1.0""?>\n<Clock xmlns:dt=""urn:schemas-microsoft-com:datatypes""><Description dt:dt=""string"">E-Prime Primary Realtime Clock</Description><StartTime><Timestamp dt:dt=""int"">0</Timestamp><DateUtc dt:dt=""string"">2021-04-30T12:53:01Z</DateUtc></StartTime><FrequencyChanges><FrequencyChange><Frequency dt:dt=""r8"">2435595</Frequency><Timestamp dt:dt=""r8"">1165029495</Timestamp><Current dt:dt=""r8"">0</Current><DateUtc dt:dt=""string"">2021-04-30T12:53:01Z</DateUtc></FrequencyChange></FrequencyChanges></Clock>\n";EXP2.2_290421-10006-1;60.024;1.0.0.345;1;Chronos;1165484236;Full;3.0.3.80;3.0.3.80;04-30-2021;30/04/2021 12:53;14:53:01;3.0.3.82;2;Chronos;;2;1;2;TESTVV;Generalbloc;;;;pretest;Chronos;52;15;VV_290421/900.png;6;1;52;0;blocVVstim;listVVTrial;;;;Chronos;0;;1;-1;1241303;200;;0;0;0;15;Chronos;1;0;1241503;300;5;1097;1242600;0;15;Chronos;0;0;1241803;0;5;797;1242600;;;;;;;;;;;;;;;;;;;
EXP2.2_290421;10006;1;Chronos;<ChronosDeviceInfo><FriendlyName>MyChronos</FriendlyName><DeviceIndex>1</DeviceIndex><SerialNumber>CHR-04301-1186</SerialNumber><EBNVersion>3.0.3.80</EBNVersion><FirmwareVersion>1.33</FirmwareVersion><APIVersion>1.33</APIVersion><USBHostControllerVersion>2.0</USBHostControllerVersion><USBConnectionRoute>USB#ROOT_HUB20#4&9bd2e8a&0#{f18a0e88-c30c-11d0-8815-00a0c906bed8} + USB#VID_8087&PID_0024#5&3026c139&0&1#{f18a0e88-c30c-11d0-8815-00a0c906bed8}(1) + VID_2266&PID_0007(7)</USBConnectionRoute></ChronosDeviceInfo>;"<?xml version=""1.0""?>\n<Clock xmlns:dt=""urn:schemas-microsoft-com:datatypes""><Description dt:dt=""string"">E-Prime Primary Realtime Clock</Description><StartTime><Timestamp dt:dt=""int"">0</Timestamp><DateUtc dt:dt=""string"">2021-04-30T12:53:01Z</DateUtc></StartTime><FrequencyChanges><FrequencyChange><Frequency dt:dt=""r8"">2435595</Frequency><Timestamp dt:dt=""r8"">1165029495</Timestamp><Current dt:dt=""r8"">0</Current><DateUtc dt:dt=""string"">2021-04-30T12:53:01Z</DateUtc></FrequencyChange></FrequencyChanges></Clock>\n";EXP2.2_290421-10006-1;60.024;1.0.0.345;1;Chronos;1165484236;Full;3.0.3.80;3.0.3.80;04-30-2021;30/04/2021 12:53;14:53:01;3.0.3.82;2;Chronos;;2;1;2;TESTVV;Generalbloc;;;;pretest;Chronos;53;1;VV_290421/875.png;1;1;53;-25;blocVVstim;listVVTrial;;;;Chronos;0;;0;-1;1244119;200;;0;0;1;1;Chronos;0;0;1244319;300;1;548;1244867;1;1;Chronos;0;0;1244619;0;1;248;1244867;;;;;;;;;;;;;;;;;;;
EXP2.2_290421;10006;1;Chronos;<ChronosDeviceInfo><FriendlyName>MyChronos</FriendlyName><DeviceIndex>1</DeviceIndex><SerialNumber>CHR-04301-1186</SerialNumber><EBNVersion>3.0.3.80</EBNVersion><FirmwareVersion>1.33</FirmwareVersion><APIVersion>1.33</APIVersion><USBHostControllerVersion>2.0</USBHostControllerVersion><USBConnectionRoute>USB#ROOT_HUB20#4&9bd2e8a&0#{f18a0e88-c30c-11d0-8815-00a0c906bed8} + USB#VID_8087&PID_0024#5&3026c139&0&1#{f18a0e88-c30c-11d0-8815-00a0c906bed8}(1) + VID_2266&PID_0007(7)</USBConnectionRoute></ChronosDeviceInfo>;"<?xml version=""1.0""?>\n<Clock xmlns:dt=""urn:schemas-microsoft-com:datatypes""><Description dt:dt=""string"">E-Prime Primary Realtime Clock</Description><StartTime><Timestamp dt:dt=""int"">0</Timestamp><DateUtc dt:dt=""string"">2021-04-30T12:53:01Z</DateUtc></StartTime><FrequencyChanges><FrequencyChange><Frequency dt:dt=""r8"">2435595</Frequency><Timestamp dt:dt=""r8"">1165029495</Timestamp><Current dt:dt=""r8"">0</Current><DateUtc dt:dt=""string"">2021-04-30T12:53:01Z</DateUtc></FrequencyChange></FrequencyChanges></Clock>\n";EXP2.2_290421-10006-1;60.024;1.0.0.345;1;Chronos;1165484236;Full;3.0.3.80;3.0.3.80;04-30-2021;30/04/2021 12:53;14:53:01;3.0.3.82;2;Chronos;;2;1;2;TESTVV;Generalbloc;;;;pretest;Chronos;54;1;VV_290421/895.png;5;1;54;-5;blocVVstim;listVVTrial;;;;Chronos;0;;0;0;1246385;200;;0;0;1;1;Chronos;0;0;1246585;300;1;676;1247261;1;1;Chronos;0;0;1246885;0;1;376;1247261;;;;;;;;;;;;;;;;;;;
EXP2.2_290421;10006;1;Chronos;<ChronosDeviceInfo><FriendlyName>MyChronos</FriendlyName><DeviceIndex>1</DeviceIndex><SerialNumber>CHR-04301-1186</SerialNumber><EBNVersion>3.0.3.80</EBNVersion><FirmwareVersion>1.33</FirmwareVersion><APIVersion>1.33</APIVersion><USBHostControllerVersion>2.0</USBHostControllerVersion><USBConnectionRoute>USB#ROOT_HUB20#4&9bd2e8a&0#{f18a0e88-c30c-11d0-8815-00a0c906bed8} + USB#VID_8087&PID_0024#5&3026c139&0&1#{f18a0e88-c30c-11d0-8815-00a0c906bed8}(1) + VID_2266&PID_0007(7)</USBConnectionRoute></ChronosDeviceInfo>;"<?xml version=""1.0""?>\n<Clock xmlns:dt=""urn:schemas-microsoft-com:datatypes""><Description dt:dt=""string"">E-Prime Primary Realtime Clock</Description><StartTime><Timestamp dt:dt=""int"">0</Timestamp><DateUtc dt:dt=""string"">2021-04-30T12:53:01Z</DateUtc></StartTime><FrequencyChanges><FrequencyChange><Frequency dt:dt=""r8"">2435595</Frequency><Timestamp dt:dt=""r8"">1165029495</Timestamp><Current dt:dt=""r8"">0</Current><DateUtc dt:dt=""string"">2021-04-30T12:53:01Z</DateUtc></FrequencyChange></FrequencyChanges></Clock>\n";EXP2.2_290421-10006-1;60.024;1.0.0.345;1;Chronos;1165484236;Full;3.0.3.80;3.0.3.80;04-30-2021;30/04/2021 12:53;14:53:01;3.0.3.82;2;Chronos;;2;1;2;TESTVV;Generalbloc;;;;pretest;Chronos;55;5;VV_290421/910.png;8;1;55;10;blocVVstim;listVVTrial;;;;Chronos;0;;0;0;1248784;200;;0;0;1;5;Chronos;0;0;1248984;300;5;507;1249491;1;5;Chronos;0;0;1249284;0;5;207;1249491;;;;;;;;;;;;;;;;;;;
EXP2.2_290421;10006;1;Chronos;<ChronosDeviceInfo><FriendlyName>MyChronos</FriendlyName><DeviceIndex>1</DeviceIndex><SerialNumber>CHR-04301-1186</SerialNumber><EBNVersion>3.0.3.80</EBNVersion><FirmwareVersion>1.33</FirmwareVersion><APIVersion>1.33</APIVersion><USBHostControllerVersion>2.0</USBHostControllerVersion><USBConnectionRoute>USB#ROOT_HUB20#4&9bd2e8a&0#{f18a0e88-c30c-11d0-8815-00a0c906bed8} + USB#VID_8087&PID_0024#5&3026c139&0&1#{f18a0e88-c30c-11d0-8815-00a0c906bed8}(1) + VID_2266&PID_0007(7)</USBConnectionRoute></ChronosDeviceInfo>;"<?xml version=""1.0""?>\n<Clock xmlns:dt=""urn:schemas-microsoft-com:datatypes""><Description dt:dt=""string"">E-Prime Primary Realtime Clock</Description><StartTime><Timestamp dt:dt=""int"">0</Timestamp><DateUtc dt:dt=""string"">2021-04-30T12:53:01Z</DateUtc></StartTime><FrequencyChanges><FrequencyChange><Frequency dt:dt=""r8"">2435595</Frequency><Timestamp dt:dt=""r8"">1165029495</Timestamp><Current dt:dt=""r8"">0</Current><DateUtc dt:dt=""string"">2021-04-30T12:53:01Z</DateUtc></FrequencyChange></FrequencyChanges></Clock>\n";EXP2.2_290421-10006-1;60.024;1.0.0.345;1;Chronos;1165484236;Full;3.0.3.80;3.0.3.80;04-30-2021;30/04/2021 12:53;14:53:01;3.0.3.82;2;Chronos;;2;1;2;TESTVV;Generalbloc;;;;pretest;Chronos;56;1;VV_290421/875.png;1;1;56;-25;blocVVstim;listVVTrial;;;;Chronos;0;;0;-1;1251016;200;;0;0;1;1;Chronos;0;0;1251216;300;1;549;1251765;1;1;Chronos;0;0;1251516;0;1;249;1251765;;;;;;;;;;;;;;;;;;;
EXP2.2_290421;10006;1;Chronos;<ChronosDeviceInfo><FriendlyName>MyChronos</FriendlyName><DeviceIndex>1</DeviceIndex><SerialNumber>CHR-04301-1186</SerialNumber><EBNVersion>3.0.3.80</EBNVersion><FirmwareVersion>1.33</FirmwareVersion><APIVersion>1.33</APIVersion><USBHostControllerVersion>2.0</USBHostControllerVersion><USBConnectionRoute>USB#ROOT_HUB20#4&9bd2e8a&0#{f18a0e88-c30c-11d0-8815-00a0c906bed8} + USB#VID_8087&PID_0024#5&3026c139&0&1#{f18a0e88-c30c-11d0-8815-00a0c906bed8}(1) + VID_2266&PID_0007(7)</USBConnectionRoute></ChronosDeviceInfo>;"<?xml version=""1.0""?>\n<Clock xmlns:dt=""urn:schemas-microsoft-com:datatypes""><Description dt:dt=""string"">E-Prime Primary Realtime Clock</Description><StartTime><Timestamp dt:dt=""int"">0</Timestamp><DateUtc dt:dt=""string"">2021-04-30T12:53:01Z</DateUtc></StartTime><FrequencyChanges><FrequencyChange><Frequency dt:dt=""r8"">2435595</Frequency><Timestamp dt:dt=""r8"">1165029495</Timestamp><Current dt:dt=""r8"">0</Current><DateUtc dt:dt=""string"">2021-04-30T12:53:01Z</DateUtc></FrequencyChange></FrequencyChanges></Clock>\n";EXP2.2_290421-10006-1;60.024;1.0.0.345;1;Chronos;1165484236;Full;3.0.3.80;3.0.3.80;04-30-2021;30/04/2021 12:53;14:53:01;3.0.3.82;2;Chronos;;2;1;2;TESTVV;Generalbloc;;;;pretest;Chronos;57;1;VV_290421/880.png;2;1;57;-20;blocVVstim;listVVTrial;;;;Chronos;0;;0;-1;1253282;200;;0;0;0;1;Chronos;0;0;1253482;300;5;1165;1254647;0;1;Chronos;0;0;1253782;0;5;865;1254647;;;;;;;;;;;;;;;;;;;
EXP2.2_290421;10006;1;Chronos;<ChronosDeviceInfo><FriendlyName>MyChronos</FriendlyName><DeviceIndex>1</DeviceIndex><SerialNumber>CHR-04301-1186</SerialNumber><EBNVersion>3.0.3.80</EBNVersion><FirmwareVersion>1.33</FirmwareVersion><APIVersion>1.33</APIVersion><USBHostControllerVersion>2.0</USBHostControllerVersion><USBConnectionRoute>USB#ROOT_HUB20#4&9bd2e8a&0#{f18a0e88-c30c-11d0-8815-00a0c906bed8} + USB#VID_8087&PID_0024#5&3026c139&0&1#{f18a0e88-c30c-11d0-8815-00a0c906bed8}(1) + VID_2266&PID_0007(7)</USBConnectionRoute></ChronosDeviceInfo>;"<?xml version=""1.0""?>\n<Clock xmlns:dt=""urn:schemas-microsoft-com:datatypes""><Description dt:dt=""string"">E-Prime Primary Realtime Clock</Description><StartTime><Timestamp dt:dt=""int"">0</Timestamp><DateUtc dt:dt=""string"">2021-04-30T12:53:01Z</DateUtc></StartTime><FrequencyChanges><FrequencyChange><Frequency dt:dt=""r8"">2435595</Frequency><Timestamp dt:dt=""r8"">1165029495</Timestamp><Current dt:dt=""r8"">0</Current><DateUtc dt:dt=""string"">2021-04-30T12:53:01Z</DateUtc></FrequencyChange></FrequencyChanges></Clock>\n";EXP2.2_290421-10006-1;60.024;1.0.0.345;1;Chronos;1165484236;Full;3.0.3.80;3.0.3.80;04-30-2021;30/04/2021 12:53;14:53:01;3.0.3.82;2;Chronos;;2;1;2;TESTVV;Generalbloc;;;;pretest;Chronos;58;5;VV_290421/925.png;11;1;58;25;blocVVstim;listVVTrial;;;;Chronos;0;;0;-1;1256164;200;;0;0;1;5;Chronos;0;0;1256364;300;5;723;1257087;1;5;Chronos;0;0;1256664;0;5;423;1257087;;;;;;;;;;;;;;;;;;;
EXP2.2_290421;10006;1;Chronos;<ChronosDeviceInfo><FriendlyName>MyChronos</FriendlyName><DeviceIndex>1</DeviceIndex><SerialNumber>CHR-04301-1186</SerialNumber><EBNVersion>3.0.3.80</EBNVersion><FirmwareVersion>1.33</FirmwareVersion><APIVersion>1.33</APIVersion><USBHostControllerVersion>2.0</USBHostControllerVersion><USBConnectionRoute>USB#ROOT_HUB20#4&9bd2e8a&0#{f18a0e88-c30c-11d0-8815-00a0c906bed8} + USB#VID_8087&PID_0024#5&3026c139&0&1#{f18a0e88-c30c-11d0-8815-00a0c906bed8}(1) + VID_2266&PID_0007(7)</USBConnectionRoute></ChronosDeviceInfo>;"<?xml version=""1.0""?>\n<Clock xmlns:dt=""urn:schemas-microsoft-com:datatypes""><Description dt:dt=""string"">E-Prime Primary Realtime Clock</Description><StartTime><Timestamp dt:dt=""int"">0</Timestamp><DateUtc dt:dt=""string"">2021-04-30T12:53:01Z</DateUtc></StartTime><FrequencyChanges><FrequencyChange><Frequency dt:dt=""r8"">2435595</Frequency><Timestamp dt:dt=""r8"">1165029495</Timestamp><Current dt:dt=""r8"">0</Current><DateUtc dt:dt=""string"">2021-04-30T12:53:01Z</DateUtc></FrequencyChange></FrequencyChanges></Clock>\n";EXP2.2_290421-10006-1;60.024;1.0.0.345;1;Chronos;1165484236;Full;3.0.3.80;3.0.3.80;04-30-2021;30/04/2021 12:53;14:53:01;3.0.3.82;2;Chronos;;2;1;2;TESTVV;Generalbloc;;;;pretest;Chronos;59;5;VV_290421/905.png;7;1;59;5;blocVVstim;listVVTrial;;;;Chronos;0;;0;-1;1258613;200;;0;0;1;5;Chronos;0;0;1258813;300;5;896;1259709;1;5;Chronos;0;0;1259113;0;5;596;1259709;;;;;;;;;;;;;;;;;;;
EXP2.2_290421;10006;1;Chronos;<ChronosDeviceInfo><FriendlyName>MyChronos</FriendlyName><DeviceIndex>1</DeviceIndex><SerialNumber>CHR-04301-1186</SerialNumber><EBNVersion>3.0.3.80</EBNVersion><FirmwareVersion>1.33</FirmwareVersion><APIVersion>1.33</APIVersion><USBHostControllerVersion>2.0</USBHostControllerVersion><USBConnectionRoute>USB#ROOT_HUB20#4&9bd2e8a&0#{f18a0e88-c30c-11d0-8815-00a0c906bed8} + USB#VID_8087&PID_0024#5&3026c139&0&1#{f18a0e88-c30c-11d0-8815-00a0c906bed8}(1) + VID_2266&PID_0007(7)</USBConnectionRoute></ChronosDeviceInfo>;"<?xml version=""1.0""?>\n<Clock xmlns:dt=""urn:schemas-microsoft-com:datatypes""><Description dt:dt=""string"">E-Prime Primary Realtime Clock</Description><StartTime><Timestamp dt:dt=""int"">0</Timestamp><DateUtc dt:dt=""string"">2021-04-30T12:53:01Z</DateUtc></StartTime><FrequencyChanges><FrequencyChange><Frequency dt:dt=""r8"">2435595</Frequency><Timestamp dt:dt=""r8"">1165029495</Timestamp><Current dt:dt=""r8"">0</Current><DateUtc dt:dt=""string"">2021-04-30T12:53:01Z</DateUtc></FrequencyChange></FrequencyChanges></Clock>\n";EXP2.2_290421-10006-1;60.024;1.0.0.345;1;Chronos;1165484236;Full;3.0.3.80;3.0.3.80;04-30-2021;30/04/2021 12:53;14:53:01;3.0.3.82;2;Chronos;;2;1;2;TESTVV;Generalbloc;;;;pretest;Chronos;60;5;VV_290421/905.png;7;1;60;5;blocVVstim;listVVTrial;;;;Chronos;0;;0;0;1261229;200;;0;0;1;5;Chronos;0;0;1261429;300;5;773;1262202;1;5;Chronos;0;0;1261729;0;5;473;1262202;;;;;;;;;;;;;;;;;;;
EXP2.2_290421;10006;1;Chronos;<ChronosDeviceInfo><FriendlyName>MyChronos</FriendlyName><DeviceIndex>1</DeviceIndex><SerialNumber>CHR-04301-1186</SerialNumber><EBNVersion>3.0.3.80</EBNVersion><FirmwareVersion>1.33</FirmwareVersion><APIVersion>1.33</APIVersion><USBHostControllerVersion>2.0</USBHostControllerVersion><USBConnectionRoute>USB#ROOT_HUB20#4&9bd2e8a&0#{f18a0e88-c30c-11d0-8815-00a0c906bed8} + USB#VID_8087&PID_0024#5&3026c139&0&1#{f18a0e88-c30c-11d0-8815-00a0c906bed8}(1) + VID_2266&PID_0007(7)</USBConnectionRoute></ChronosDeviceInfo>;"<?xml version=""1.0""?>\n<Clock xmlns:dt=""urn:schemas-microsoft-com:datatypes""><Description dt:dt=""string"">E-Prime Primary Realtime Clock</Description><StartTime><Timestamp dt:dt=""int"">0</Timestamp><DateUtc dt:dt=""string"">2021-04-30T12:53:01Z</DateUtc></StartTime><FrequencyChanges><FrequencyChange><Frequency dt:dt=""r8"">2435595</Frequency><Timestamp dt:dt=""r8"">1165029495</Timestamp><Current dt:dt=""r8"">0</Current><DateUtc dt:dt=""string"">2021-04-30T12:53:01Z</DateUtc></FrequencyChange></FrequencyChanges></Clock>\n";EXP2.2_290421-10006-1;60.024;1.0.0.345;1;Chronos;1165484236;Full;3.0.3.80;3.0.3.80;04-30-2021;30/04/2021 12:53;14:53:01;3.0.3.82;2;Chronos;;2;1;2;TESTVV;Generalbloc;;;;pretest;Chronos;61;5;VV_290421/910.png;8;1;61;10;blocVVstim;listVVTrial;;;;Chronos;0;;0;0;1263728;200;;0;0;1;5;Chronos;0;0;1263928;300;5;901;1264829;1;5;Chronos;0;0;1264228;0;5;601;1264829;;;;;;;;;;;;;;;;;;;
