ExperimentName;Subject;Session;calibrage.DEVICE[Session];Chronos.BoxInfo;Clock.Information;DataFile.Basename;Display.RefreshRate;ExperimentVersion;Group;Hello.DEVICE;RandomSeed;RuntimeCapabilities;RuntimeVersion;RuntimeVersionExpected;SessionDate;SessionStartDateTimeUtc;SessionTime;StudioVersion;Block;calibrage.DEVICE[Block];EndTraining.DEVICE;Generalbloc;Generalbloc.Cycle;Generalbloc.Sample;Procedure[Block];Running[Block];TextDisplay1.DEVICE;TextDisplay2.DEVICE;TextTraining.DEVICE;time;VVInst.DEVICE[Block];Trial;correct;image;listVVTrial;listVVTrial.Cycle;listVVTrial.Sample;offset;Procedure[Trial];Running[Trial];SpatialTaskTraining;SpatialTaskTraining.Cycle;SpatialTaskTraining.Sample;VVInst.DEVICE[Trial];vvstimnoresp.ACC;vvstimnoresp.CRESP;vvstimnoresp.DurationError;vvstimnoresp.OnsetDelay;vvstimnoresp.OnsetTime;vvstimnoresp.OnsetToOnsetTime;vvstimnoresp.RESP;vvstimnoresp.RT;vvstimnoresp.RTTime;vvstimresp1.ACC;vvstimresp1.CRESP;vvstimresp1.DEVICE;vvstimresp1.DurationError;vvstimresp1.OnsetDelay;vvstimresp1.OnsetTime;vvstimresp1.OnsetToOnsetTime;vvstimresp1.RESP;vvstimresp1.RT;vvstimresp1.RTTime;vvstimresp2.ACC;vvstimresp2.CRESP;vvstimresp2.DEVICE;vvstimresp2.DurationError;vvstimresp2.OnsetDelay;vvstimresp2.OnsetTime;vvstimresp2.OnsetToOnsetTime;vvstimresp2.RESP;vvstimresp2.RT;vvstimresp2.RTTime;SubTrial;LISTVVRANDOM1;LISTVVRANDOM1.Cycle;LISTVVRANDOM1.Sample;LISTVVRANDOM2;Procedure[SubTrial];Running[SubTrial];VVR;VVRANDOM;VVRANDOMRESP.ACC;VVRANDOMRESP.CRESP;VVRANDOMRESP.DEVICE;VVRANDOMRESP.DurationError;VVRANDOMRESP.OnsetDelay;VVRANDOMRESP.OnsetTime;VVRANDOMRESP.OnsetToOnsetTime;VVRANDOMRESP.RESP;VVRANDOMRESP.RT;VVRANDOMRESP.RTTime
EXP2.2_290421;1007;1;Chronos;<ChronosDeviceInfo><FriendlyName>MyChronos</FriendlyName><DeviceIndex>1</DeviceIndex><SerialNumber>CHR-04301-1186</SerialNumber><EBNVersion>3.0.3.80</EBNVersion><FirmwareVersion>1.33</FirmwareVersion><APIVersion>1.33</APIVersion><USBHostControllerVersion>2.0</USBHostControllerVersion><USBConnectionRoute>USB#ROOT_HUB20#4&9bd2e8a&0#{f18a0e88-c30c-11d0-8815-00a0c906bed8} + USB#VID_8087&PID_0024#5&3026c139&0&1#{f18a0e88-c30c-11d0-8815-00a0c906bed8}(1) + VID_2266&PID_0007(7)</USBConnectionRoute></ChronosDeviceInfo>;"<?xml version=""1.0""?>\n<Clock xmlns:dt=""urn:schemas-microsoft-com:datatypes""><Description dt:dt=""string"">E-Prime Primary Realtime Clock</Description><StartTime><Timestamp dt:dt=""int"">0</Timestamp><DateUtc dt:dt=""string"">2021-04-30T15:08:09Z</DateUtc></StartTime><FrequencyChanges><FrequencyChange><Frequency dt:dt=""r8"">2435595</Frequency><Timestamp dt:dt=""r8"">20911740906</Timestamp><Current dt:dt=""r8"">0</Current><DateUtc dt:dt=""string"">2021-04-30T15:08:09Z</DateUtc></FrequencyChange></FrequencyChanges></Clock>\n";EXP2.2_290421-1007-1;60.025;1.0.0.346;1;Chronos;-562658007;Full;3.0.3.80;3.0.3.80;04-30-2021;30/04/2021 15:08;17:08:09;3.0.3.82;1;Chronos;Chronos;1;1;1;Training;Generalbloc;;;Chronos;pretest;;1;;;;;;;TRAININGVV;SpatialTaskTraining;1;1;1;Chronos;;;;;;;;;;;;;;;;;;;;;;;;;;;;;;1;1;1;1;1;blocVVstimTraining;LISTVVRANDOM1;VV_290421/875.png;VV_290421/880.png;0;;Chronos;-999999;-1;141611;0;5;12638;154249
EXP2.2_290421;1007;1;Chronos;<ChronosDeviceInfo><FriendlyName>MyChronos</FriendlyName><DeviceIndex>1</DeviceIndex><SerialNumber>CHR-04301-1186</SerialNumber><EBNVersion>3.0.3.80</EBNVersion><FirmwareVersion>1.33</FirmwareVersion><APIVersion>1.33</APIVersion><USBHostControllerVersion>2.0</USBHostControllerVersion><USBConnectionRoute>USB#ROOT_HUB20#4&9bd2e8a&0#{f18a0e88-c30c-11d0-8815-00a0c906bed8} + USB#VID_8087&PID_0024#5&3026c139&0&1#{f18a0e88-c30c-11d0-8815-00a0c906bed8}(1) + VID_2266&PID_0007(7)</USBConnectionRoute></ChronosDeviceInfo>;"<?xml version=""1.0""?>\n<Clock xmlns:dt=""urn:schemas-microsoft-com:datatypes""><Description dt:dt=""string"">E-Prime Primary Realtime Clock</Description><StartTime><Timestamp dt:dt=""int"">0</Timestamp><DateUtc dt:dt=""string"">2021-04-30T15:08:09Z</DateUtc></StartTime><FrequencyChanges><FrequencyChange><Frequency dt:dt=""r8"">2435595</Frequency><Timestamp dt:dt=""r8"">20911740906</Timestamp><Current dt:dt=""r8"">0</Current><DateUtc dt:dt=""string"">2021-04-30T15:08:09Z</DateUtc></FrequencyChange></FrequencyChanges></Clock>\n";EXP2.2_290421-1007-1;60.025;1.0.0.346;1;Chronos;-562658007;Full;3.0.3.80;3.0.3.80;04-30-2021;30/04/2021 15:08;17:08:09;3.0.3.82;1;Chronos;Chronos;1;1;1;Training;Generalbloc;;;Chronos;pretest;;1;;;;;;;TRAININGVV;SpatialTaskTraining;1;1;1;Chronos;;;;;;;;;;;;;;;;;;;;;;;;;;;;;;2;1;1;2;3;blocVVstimTraining;LISTVVRANDOM1;VV_290421/885.png;VV_290421/890.png;0;;Chronos;-999999;0;156272;0;1;434;156706
EXP2.2_290421;1007;1;Chronos;<ChronosDeviceInfo><FriendlyName>MyChronos</FriendlyName><DeviceIndex>1</DeviceIndex><SerialNumber>CHR-04301-1186</SerialNumber><EBNVersion>3.0.3.80</EBNVersion><FirmwareVersion>1.33</FirmwareVersion><APIVersion>1.33</APIVersion><USBHostControllerVersion>2.0</USBHostControllerVersion><USBConnectionRoute>USB#ROOT_HUB20#4&9bd2e8a&0#{f18a0e88-c30c-11d0-8815-00a0c906bed8} + USB#VID_8087&PID_0024#5&3026c139&0&1#{f18a0e88-c30c-11d0-8815-00a0c906bed8}(1) + VID_2266&PID_0007(7)</USBConnectionRoute></ChronosDeviceInfo>;"<?xml version=""1.0""?>\n<Clock xmlns:dt=""urn:schemas-microsoft-com:datatypes""><Description dt:dt=""string"">E-Prime Primary Realtime Clock</Description><StartTime><Timestamp dt:dt=""int"">0</Timestamp><DateUtc dt:dt=""string"">2021-04-30T15:08:09Z</DateUtc></StartTime><FrequencyChanges><FrequencyChange><Frequency dt:dt=""r8"">2435595</Frequency><Timestamp dt:dt=""r8"">20911740906</Timestamp><Current dt:dt=""r8"">0</Current><DateUtc dt:dt=""string"">2021-04-30T15:08:09Z</DateUtc></FrequencyChange></FrequencyChanges></Clock>\n";EXP2.2_290421-1007-1;60.025;1.0.0.346;1;Chronos;-562658007;Full;3.0.3.80;3.0.3.80;04-30-2021;30/04/2021 15:08;17:08:09;3.0.3.82;1;Chronos;Chronos;1;1;1;Training;Generalbloc;;;Chronos;pretest;;1;;;;;;;TRAININGVV;SpatialTaskTraining;1;1;1;Chronos;;;;;;;;;;;;;;;;;;;;;;;;;;;;;;3;1;1;3;5;blocVVstimTraining;LISTVVRANDOM1;VV_290421/895.png;VV_290421/900.png;0;;Chronos;-999999;0;158721;0;5;216;158937
EXP2.2_290421;1007;1;Chronos;<ChronosDeviceInfo><FriendlyName>MyChronos</FriendlyName><DeviceIndex>1</DeviceIndex><SerialNumber>CHR-04301-1186</SerialNumber><EBNVersion>3.0.3.80</EBNVersion><FirmwareVersion>1.33</FirmwareVersion><APIVersion>1.33</APIVersion><USBHostControllerVersion>2.0</USBHostControllerVersion><USBConnectionRoute>USB#ROOT_HUB20#4&9bd2e8a&0#{f18a0e88-c30c-11d0-8815-00a0c906bed8} + USB#VID_8087&PID_0024#5&3026c139&0&1#{f18a0e88-c30c-11d0-8815-00a0c906bed8}(1) + VID_2266&PID_0007(7)</USBConnectionRoute></ChronosDeviceInfo>;"<?xml version=""1.0""?>\n<Clock xmlns:dt=""urn:schemas-microsoft-com:datatypes""><Description dt:dt=""string"">E-Prime Primary Realtime Clock</Description><StartTime><Timestamp dt:dt=""int"">0</Timestamp><DateUtc dt:dt=""string"">2021-04-30T15:08:09Z</DateUtc></StartTime><FrequencyChanges><FrequencyChange><Frequency dt:dt=""r8"">2435595</Frequency><Timestamp dt:dt=""r8"">20911740906</Timestamp><Current dt:dt=""r8"">0</Current><DateUtc dt:dt=""string"">2021-04-30T15:08:09Z</DateUtc></FrequencyChange></FrequencyChanges></Clock>\n";EXP2.2_290421-1007-1;60.025;1.0.0.346;1;Chronos;-562658007;Full;3.0.3.80;3.0.3.80;04-30-2021;30/04/2021 15:08;17:08:09;3.0.3.82;1;Chronos;Chronos;1;1;1;Training;Generalbloc;;;Chronos;pretest;;1;;;;;;;TRAININGVV;SpatialTaskTraining;1;1;1;Chronos;;;;;;;;;;;;;;;;;;;;;;;;;;;;;;4;1;1;4;7;blocVVstimTraining;LISTVVRANDOM1;VV_290421/905.png;VV_290421/910.png;0;;Chronos;-999999;0;160954;0;5;117;161071
EXP2.2_290421;1007;1;Chronos;<ChronosDeviceInfo><FriendlyName>MyChronos</FriendlyName><DeviceIndex>1</DeviceIndex><SerialNumber>CHR-04301-1186</SerialNumber><EBNVersion>3.0.3.80</EBNVersion><FirmwareVersion>1.33</FirmwareVersion><APIVersion>1.33</APIVersion><USBHostControllerVersion>2.0</USBHostControllerVersion><USBConnectionRoute>USB#ROOT_HUB20#4&9bd2e8a&0#{f18a0e88-c30c-11d0-8815-00a0c906bed8} + USB#VID_8087&PID_0024#5&3026c139&0&1#{f18a0e88-c30c-11d0-8815-00a0c906bed8}(1) + VID_2266&PID_0007(7)</USBConnectionRoute></ChronosDeviceInfo>;"<?xml version=""1.0""?>\n<Clock xmlns:dt=""urn:schemas-microsoft-com:datatypes""><Description dt:dt=""string"">E-Prime Primary Realtime Clock</Description><StartTime><Timestamp dt:dt=""int"">0</Timestamp><DateUtc dt:dt=""string"">2021-04-30T15:08:09Z</DateUtc></StartTime><FrequencyChanges><FrequencyChange><Frequency dt:dt=""r8"">2435595</Frequency><Timestamp dt:dt=""r8"">20911740906</Timestamp><Current dt:dt=""r8"">0</Current><DateUtc dt:dt=""string"">2021-04-30T15:08:09Z</DateUtc></FrequencyChange></FrequencyChanges></Clock>\n";EXP2.2_290421-1007-1;60.025;1.0.0.346;1;Chronos;-562658007;Full;3.0.3.80;3.0.3.80;04-30-2021;30/04/2021 15:08;17:08:09;3.0.3.82;1;Chronos;Chronos;1;1;1;Training;Generalbloc;;;Chronos;pretest;;1;;;;;;;TRAININGVV;SpatialTaskTraining;1;1;1;Chronos;;;;;;;;;;;;;;;;;;;;;;;;;;;;;;5;1;1;5;9;blocVVstimTraining;LISTVVRANDOM1;VV_290421/915.png;VV_290421/920.png;0;;Chronos;-999999;0;163086;0;5;2569;165655
EXP2.2_290421;1007;1;Chronos;<ChronosDeviceInfo><FriendlyName>MyChronos</FriendlyName><DeviceIndex>1</DeviceIndex><SerialNumber>CHR-04301-1186</SerialNumber><EBNVersion>3.0.3.80</EBNVersion><FirmwareVersion>1.33</FirmwareVersion><APIVersion>1.33</APIVersion><USBHostControllerVersion>2.0</USBHostControllerVersion><USBConnectionRoute>USB#ROOT_HUB20#4&9bd2e8a&0#{f18a0e88-c30c-11d0-8815-00a0c906bed8} + USB#VID_8087&PID_0024#5&3026c139&0&1#{f18a0e88-c30c-11d0-8815-00a0c906bed8}(1) + VID_2266&PID_0007(7)</USBConnectionRoute></ChronosDeviceInfo>;"<?xml version=""1.0""?>\n<Clock xmlns:dt=""urn:schemas-microsoft-com:datatypes""><Description dt:dt=""string"">E-Prime Primary Realtime Clock</Description><StartTime><Timestamp dt:dt=""int"">0</Timestamp><DateUtc dt:dt=""string"">2021-04-30T15:08:09Z</DateUtc></StartTime><FrequencyChanges><FrequencyChange><Frequency dt:dt=""r8"">2435595</Frequency><Timestamp dt:dt=""r8"">20911740906</Timestamp><Current dt:dt=""r8"">0</Current><DateUtc dt:dt=""string"">2021-04-30T15:08:09Z</DateUtc></FrequencyChange></FrequencyChanges></Clock>\n";EXP2.2_290421-1007-1;60.025;1.0.0.346;1;Chronos;-562658007;Full;3.0.3.80;3.0.3.80;04-30-2021;30/04/2021 15:08;17:08:09;3.0.3.82;1;Chronos;Chronos;1;1;1;Training;Generalbloc;;;Chronos;pretest;;1;;;;;;;TRAININGVV;SpatialTaskTraining;1;1;1;Chronos;;;;;;;;;;;;;;;;;;;;;;;;;;;;;;6;1;1;6;11;blocVVstimTraining;LISTVVRANDOM1;VV_290421/925.png;VV_290421/875.png;0;;Chronos;-999999;0;167668;0;1;141;167809
EXP2.2_290421;1007;1;Chronos;<ChronosDeviceInfo><FriendlyName>MyChronos</FriendlyName><DeviceIndex>1</DeviceIndex><SerialNumber>CHR-04301-1186</SerialNumber><EBNVersion>3.0.3.80</EBNVersion><FirmwareVersion>1.33</FirmwareVersion><APIVersion>1.33</APIVersion><USBHostControllerVersion>2.0</USBHostControllerVersion><USBConnectionRoute>USB#ROOT_HUB20#4&9bd2e8a&0#{f18a0e88-c30c-11d0-8815-00a0c906bed8} + USB#VID_8087&PID_0024#5&3026c139&0&1#{f18a0e88-c30c-11d0-8815-00a0c906bed8}(1) + VID_2266&PID_0007(7)</USBConnectionRoute></ChronosDeviceInfo>;"<?xml version=""1.0""?>\n<Clock xmlns:dt=""urn:schemas-microsoft-com:datatypes""><Description dt:dt=""string"">E-Prime Primary Realtime Clock</Description><StartTime><Timestamp dt:dt=""int"">0</Timestamp><DateUtc dt:dt=""string"">2021-04-30T15:08:09Z</DateUtc></StartTime><FrequencyChanges><FrequencyChange><Frequency dt:dt=""r8"">2435595</Frequency><Timestamp dt:dt=""r8"">20911740906</Timestamp><Current dt:dt=""r8"">0</Current><DateUtc dt:dt=""string"">2021-04-30T15:08:09Z</DateUtc></FrequencyChange></FrequencyChanges></Clock>\n";EXP2.2_290421-1007-1;60.025;1.0.0.346;1;Chronos;-562658007;Full;3.0.3.80;3.0.3.80;04-30-2021;30/04/2021 15:08;17:08:09;3.0.3.82;2;Chronos;;2;1;2;TESTVV;Generalbloc;;;;pretest;Chronos;1;5;VV_290421/925.png;11;1;1;25;blocVVstim;listVVTrial;;;;Chronos;0;;0;0;247403;199;;0;0;1;5;Chronos;1;-1;247602;300;5;304;247906;1;5;Chronos;0;0;247902;0;5;4;247906;;;;;;;;;;;;;;;;;;;
EXP2.2_290421;1007;1;Chronos;<ChronosDeviceInfo><FriendlyName>MyChronos</FriendlyName><DeviceIndex>1</DeviceIndex><SerialNumber>CHR-04301-1186</SerialNumber><EBNVersion>3.0.3.80</EBNVersion><FirmwareVersion>1.33</FirmwareVersion><APIVersion>1.33</APIVersion><USBHostControllerVersion>2.0</USBHostControllerVersion><USBConnectionRoute>USB#ROOT_HUB20#4&9bd2e8a&0#{f18a0e88-c30c-11d0-8815-00a0c906bed8} + USB#VID_8087&PID_0024#5&3026c139&0&1#{f18a0e88-c30c-11d0-8815-00a0c906bed8}(1) + VID_2266&PID_0007(7)</USBConnectionRoute></ChronosDeviceInfo>;"<?xml version=""1.0""?>\n<Clock xmlns:dt=""urn:schemas-microsoft-com:datatypes""><Description dt:dt=""string"">E-Prime Primary Realtime Clock</Description><StartTime><Timestamp dt:dt=""int"">0</Timestamp><DateUtc dt:dt=""string"">2021-04-30T15:08:09Z</DateUtc></StartTime><FrequencyChanges><FrequencyChange><Frequency dt:dt=""r8"">2435595</Frequency><Timestamp dt:dt=""r8"">20911740906</Timestamp><Current dt:dt=""r8"">0</Current><DateUtc dt:dt=""string"">2021-04-30T15:08:09Z</DateUtc></FrequencyChange></FrequencyChanges></Clock>\n";EXP2.2_290421-1007-1;60.025;1.0.0.346;1;Chronos;-562658007;Full;3.0.3.80;3.0.3.80;04-30-2021;30/04/2021 15:08;17:08:09;3.0.3.82;2;Chronos;;2;1;2;TESTVV;Generalbloc;;;;pretest;Chronos;2;5;VV_290421/920.png;10;1;2;20;blocVVstim;listVVTrial;;;;Chronos;0;;0;-1;249435;200;;0;0;1;5;Chronos;0;0;249635;300;5;584;250219;1;5;Chronos;0;0;249935;0;5;284;250219;;;;;;;;;;;;;;;;;;;
EXP2.2_290421;1007;1;Chronos;<ChronosDeviceInfo><FriendlyName>MyChronos</FriendlyName><DeviceIndex>1</DeviceIndex><SerialNumber>CHR-04301-1186</SerialNumber><EBNVersion>3.0.3.80</EBNVersion><FirmwareVersion>1.33</FirmwareVersion><APIVersion>1.33</APIVersion><USBHostControllerVersion>2.0</USBHostControllerVersion><USBConnectionRoute>USB#ROOT_HUB20#4&9bd2e8a&0#{f18a0e88-c30c-11d0-8815-00a0c906bed8} + USB#VID_8087&PID_0024#5&3026c139&0&1#{f18a0e88-c30c-11d0-8815-00a0c906bed8}(1) + VID_2266&PID_0007(7)</USBConnectionRoute></ChronosDeviceInfo>;"<?xml version=""1.0""?>\n<Clock xmlns:dt=""urn:schemas-microsoft-com:datatypes""><Description dt:dt=""string"">E-Prime Primary Realtime Clock</Description><StartTime><Timestamp dt:dt=""int"">0</Timestamp><DateUtc dt:dt=""string"">2021-04-30T15:08:09Z</DateUtc></StartTime><FrequencyChanges><FrequencyChange><Frequency dt:dt=""r8"">2435595</Frequency><Timestamp dt:dt=""r8"">20911740906</Timestamp><Current dt:dt=""r8"">0</Current><DateUtc dt:dt=""string"">2021-04-30T15:08:09Z</DateUtc></FrequencyChange></FrequencyChanges></Clock>\n";EXP2.2_290421-1007-1;60.025;1.0.0.346;1;Chronos;-562658007;Full;3.0.3.80;3.0.3.80;04-30-2021;30/04/2021 15:08;17:08:09;3.0.3.82;2;Chronos;;2;1;2;TESTVV;Generalbloc;;;;pretest;Chronos;3;1;VV_290421/875.png;1;1;3;-25;blocVVstim;listVVTrial;;;;Chronos;0;;0;-1;251734;200;;0;0;1;1;Chronos;0;0;251934;300;1;553;252487;1;1;Chronos;0;0;252234;0;1;253;252487;;;;;;;;;;;;;;;;;;;
EXP2.2_290421;1007;1;Chronos;<ChronosDeviceInfo><FriendlyName>MyChronos</FriendlyName><DeviceIndex>1</DeviceIndex><SerialNumber>CHR-04301-1186</SerialNumber><EBNVersion>3.0.3.80</EBNVersion><FirmwareVersion>1.33</FirmwareVersion><APIVersion>1.33</APIVersion><USBHostControllerVersion>2.0</USBHostControllerVersion><USBConnectionRoute>USB#ROOT_HUB20#4&9bd2e8a&0#{f18a0e88-c30c-11d0-8815-00a0c906bed8} + USB#VID_8087&PID_0024#5&3026c139&0&1#{f18a0e88-c30c-11d0-8815-00a0c906bed8}(1) + VID_2266&PID_0007(7)</USBConnectionRoute></ChronosDeviceInfo>;"<?xml version=""1.0""?>\n<Clock xmlns:dt=""urn:schemas-microsoft-com:datatypes""><Description dt:dt=""string"">E-Prime Primary Realtime Clock</Description><StartTime><Timestamp dt:dt=""int"">0</Timestamp><DateUtc dt:dt=""string"">2021-04-30T15:08:09Z</DateUtc></StartTime><FrequencyChanges><FrequencyChange><Frequency dt:dt=""r8"">2435595</Frequency><Timestamp dt:dt=""r8"">20911740906</Timestamp><Current dt:dt=""r8"">0</Current><DateUtc dt:dt=""string"">2021-04-30T15:08:09Z</DateUtc></FrequencyChange></FrequencyChanges></Clock>\n";EXP2.2_290421-1007-1;60.025;1.0.0.346;1;Chronos;-562658007;Full;3.0.3.80;3.0.3.80;04-30-2021;30/04/2021 15:08;17:08:09;3.0.3.82;2;Chronos;;2;1;2;TESTVV;Generalbloc;;;;pretest;Chronos;4;5;VV_290421/925.png;11;1;4;25;blocVVstim;listVVTrial;;;;Chronos;0;;0;0;254017;199;;0;0;1;5;Chronos;1;-1;254216;300;5;591;254807;1;5;Chronos;0;0;254516;0;5;291;254807;;;;;;;;;;;;;;;;;;;
EXP2.2_290421;1007;1;Chronos;<ChronosDeviceInfo><FriendlyName>MyChronos</FriendlyName><DeviceIndex>1</DeviceIndex><SerialNumber>CHR-04301-1186</SerialNumber><EBNVersion>3.0.3.80</EBNVersion><FirmwareVersion>1.33</FirmwareVersion><APIVersion>1.33</APIVersion><USBHostControllerVersion>2.0</USBHostControllerVersion><USBConnectionRoute>USB#ROOT_HUB20#4&9bd2e8a&0#{f18a0e88-c30c-11d0-8815-00a0c906bed8} + USB#VID_8087&PID_0024#5&3026c139&0&1#{f18a0e88-c30c-11d0-8815-00a0c906bed8}(1) + VID_2266&PID_0007(7)</USBConnectionRoute></ChronosDeviceInfo>;"<?xml version=""1.0""?>\n<Clock xmlns:dt=""urn:schemas-microsoft-com:datatypes""><Description dt:dt=""string"">E-Prime Primary Realtime Clock</Description><StartTime><Timestamp dt:dt=""int"">0</Timestamp><DateUtc dt:dt=""string"">2021-04-30T15:08:09Z</DateUtc></StartTime><FrequencyChanges><FrequencyChange><Frequency dt:dt=""r8"">2435595</Frequency><Timestamp dt:dt=""r8"">20911740906</Timestamp><Current dt:dt=""r8"">0</Current><DateUtc dt:dt=""string"">2021-04-30T15:08:09Z</DateUtc></FrequencyChange></FrequencyChanges></Clock>\n";EXP2.2_290421-1007-1;60.025;1.0.0.346;1;Chronos;-562658007;Full;3.0.3.80;3.0.3.80;04-30-2021;30/04/2021 15:08;17:08:09;3.0.3.82;2;Chronos;;2;1;2;TESTVV;Generalbloc;;;;pretest;Chronos;5;1;VV_290421/895.png;5;1;5;-5;blocVVstim;listVVTrial;;;;Chronos;0;;0;-1;256332;200;;0;0;0;1;Chronos;0;0;256532;300;5;719;257251;0;1;Chronos;0;0;256832;0;5;419;257251;;;;;;;;;;;;;;;;;;;
EXP2.2_290421;1007;1;Chronos;<ChronosDeviceInfo><FriendlyName>MyChronos</FriendlyName><DeviceIndex>1</DeviceIndex><SerialNumber>CHR-04301-1186</SerialNumber><EBNVersion>3.0.3.80</EBNVersion><FirmwareVersion>1.33</FirmwareVersion><APIVersion>1.33</APIVersion><USBHostControllerVersion>2.0</USBHostControllerVersion><USBConnectionRoute>USB#ROOT_HUB20#4&9bd2e8a&0#{f18a0e88-c30c-11d0-8815-00a0c906bed8} + USB#VID_8087&PID_0024#5&3026c139&0&1#{f18a0e88-c30c-11d0-8815-00a0c906bed8}(1) + VID_2266&PID_0007(7)</USBConnectionRoute></ChronosDeviceInfo>;"<?xml version=""1.0""?>\n<Clock xmlns:dt=""urn:schemas-microsoft-com:datatypes""><Description dt:dt=""string"">E-Prime Primary Realtime Clock</Description><StartTime><Timestamp dt:dt=""int"">0</Timestamp><DateUtc dt:dt=""string"">2021-04-30T15:08:09Z</DateUtc></StartTime><FrequencyChanges><FrequencyChange><Frequency dt:dt=""r8"">2435595</Frequency><Timestamp dt:dt=""r8"">20911740906</Timestamp><Current dt:dt=""r8"">0</Current><DateUtc dt:dt=""string"">2021-04-30T15:08:09Z</DateUtc></FrequencyChange></FrequencyChanges></Clock>\n";EXP2.2_290421-1007-1;60.025;1.0.0.346;1;Chronos;-562658007;Full;3.0.3.80;3.0.3.80;04-30-2021;30/04/2021 15:08;17:08:09;3.0.3.82;2;Chronos;;2;1;2;TESTVV;Generalbloc;;;;pretest;Chronos;6;5;VV_290421/905.png;7;1;6;5;blocVVstim;listVVTrial;;;;Chronos;0;;0;-1;258781;200;;0;0;1;5;Chronos;0;0;258981;300;5;745;259726;1;5;Chronos;0;0;259281;0;5;445;259726;;;;;;;;;;;;;;;;;;;
EXP2.2_290421;1007;1;Chronos;<ChronosDeviceInfo><FriendlyName>MyChronos</FriendlyName><DeviceIndex>1</DeviceIndex><SerialNumber>CHR-04301-1186</SerialNumber><EBNVersion>3.0.3.80</EBNVersion><FirmwareVersion>1.33</FirmwareVersion><APIVersion>1.33</APIVersion><USBHostControllerVersion>2.0</USBHostControllerVersion><USBConnectionRoute>USB#ROOT_HUB20#4&9bd2e8a&0#{f18a0e88-c30c-11d0-8815-00a0c906bed8} + USB#VID_8087&PID_0024#5&3026c139&0&1#{f18a0e88-c30c-11d0-8815-00a0c906bed8}(1) + VID_2266&PID_0007(7)</USBConnectionRoute></ChronosDeviceInfo>;"<?xml version=""1.0""?>\n<Clock xmlns:dt=""urn:schemas-microsoft-com:datatypes""><Description dt:dt=""string"">E-Prime Primary Realtime Clock</Description><StartTime><Timestamp dt:dt=""int"">0</Timestamp><DateUtc dt:dt=""string"">2021-04-30T15:08:09Z</DateUtc></StartTime><FrequencyChanges><FrequencyChange><Frequency dt:dt=""r8"">2435595</Frequency><Timestamp dt:dt=""r8"">20911740906</Timestamp><Current dt:dt=""r8"">0</Current><DateUtc dt:dt=""string"">2021-04-30T15:08:09Z</DateUtc></FrequencyChange></FrequencyChanges></Clock>\n";EXP2.2_290421-1007-1;60.025;1.0.0.346;1;Chronos;-562658007;Full;3.0.3.80;3.0.3.80;04-30-2021;30/04/2021 15:08;17:08:09;3.0.3.82;2;Chronos;;2;1;2;TESTVV;Generalbloc;;;;pretest;Chronos;7;5;VV_290421/905.png;7;1;7;5;blocVVstim;listVVTrial;;;;Chronos;0;;0;-1;261247;200;;0;0;1;5;Chronos;0;0;261447;300;5;928;262375;1;5;Chronos;0;0;261747;0;5;628;262375;;;;;;;;;;;;;;;;;;;
EXP2.2_290421;1007;1;Chronos;<ChronosDeviceInfo><FriendlyName>MyChronos</FriendlyName><DeviceIndex>1</DeviceIndex><SerialNumber>CHR-04301-1186</SerialNumber><EBNVersion>3.0.3.80</EBNVersion><FirmwareVersion>1.33</FirmwareVersion><APIVersion>1.33</APIVersion><USBHostControllerVersion>2.0</USBHostControllerVersion><USBConnectionRoute>USB#ROOT_HUB20#4&9bd2e8a&0#{f18a0e88-c30c-11d0-8815-00a0c906bed8} + USB#VID_8087&PID_0024#5&3026c139&0&1#{f18a0e88-c30c-11d0-8815-00a0c906bed8}(1) + VID_2266&PID_0007(7)</USBConnectionRoute></ChronosDeviceInfo>;"<?xml version=""1.0""?>\n<Clock xmlns:dt=""urn:schemas-microsoft-com:datatypes""><Description dt:dt=""string"">E-Prime Primary Realtime Clock</Description><StartTime><Timestamp dt:dt=""int"">0</Timestamp><DateUtc dt:dt=""string"">2021-04-30T15:08:09Z</DateUtc></StartTime><FrequencyChanges><FrequencyChange><Frequency dt:dt=""r8"">2435595</Frequency><Timestamp dt:dt=""r8"">20911740906</Timestamp><Current dt:dt=""r8"">0</Current><DateUtc dt:dt=""string"">2021-04-30T15:08:09Z</DateUtc></FrequencyChange></FrequencyChanges></Clock>\n";EXP2.2_290421-1007-1;60.025;1.0.0.346;1;Chronos;-562658007;Full;3.0.3.80;3.0.3.80;04-30-2021;30/04/2021 15:08;17:08:09;3.0.3.82;2;Chronos;;2;1;2;TESTVV;Generalbloc;;;;pretest;Chronos;8;1;VV_290421/890.png;4;1;8;-10;blocVVstim;listVVTrial;;;;Chronos;0;;0;-1;263896;200;;0;0;1;1;Chronos;0;0;264096;300;1;682;264778;1;1;Chronos;0;0;264396;0;1;382;264778;;;;;;;;;;;;;;;;;;;
EXP2.2_290421;1007;1;Chronos;<ChronosDeviceInfo><FriendlyName>MyChronos</FriendlyName><DeviceIndex>1</DeviceIndex><SerialNumber>CHR-04301-1186</SerialNumber><EBNVersion>3.0.3.80</EBNVersion><FirmwareVersion>1.33</FirmwareVersion><APIVersion>1.33</APIVersion><USBHostControllerVersion>2.0</USBHostControllerVersion><USBConnectionRoute>USB#ROOT_HUB20#4&9bd2e8a&0#{f18a0e88-c30c-11d0-8815-00a0c906bed8} + USB#VID_8087&PID_0024#5&3026c139&0&1#{f18a0e88-c30c-11d0-8815-00a0c906bed8}(1) + VID_2266&PID_0007(7)</USBConnectionRoute></ChronosDeviceInfo>;"<?xml version=""1.0""?>\n<Clock xmlns:dt=""urn:schemas-microsoft-com:datatypes""><Description dt:dt=""string"">E-Prime Primary Realtime Clock</Description><StartTime><Timestamp dt:dt=""int"">0</Timestamp><DateUtc dt:dt=""string"">2021-04-30T15:08:09Z</DateUtc></StartTime><FrequencyChanges><FrequencyChange><Frequency dt:dt=""r8"">2435595</Frequency><Timestamp dt:dt=""r8"">20911740906</Timestamp><Current dt:dt=""r8"">0</Current><DateUtc dt:dt=""string"">2021-04-30T15:08:09Z</DateUtc></FrequencyChange></FrequencyChanges></Clock>\n";EXP2.2_290421-1007-1;60.025;1.0.0.346;1;Chronos;-562658007;Full;3.0.3.80;3.0.3.80;04-30-2021;30/04/2021 15:08;17:08:09;3.0.3.82;2;Chronos;;2;1;2;TESTVV;Generalbloc;;;;pretest;Chronos;9;1;VV_290421/880.png;2;1;9;-20;blocVVstim;listVVTrial;;;;Chronos;0;;0;-1;266295;200;;0;0;1;1;Chronos;0;0;266495;300;1;645;267140;1;1;Chronos;0;0;266795;0;1;345;267140;;;;;;;;;;;;;;;;;;;
EXP2.2_290421;1007;1;Chronos;<ChronosDeviceInfo><FriendlyName>MyChronos</FriendlyName><DeviceIndex>1</DeviceIndex><SerialNumber>CHR-04301-1186</SerialNumber><EBNVersion>3.0.3.80</EBNVersion><FirmwareVersion>1.33</FirmwareVersion><APIVersion>1.33</APIVersion><USBHostControllerVersion>2.0</USBHostControllerVersion><USBConnectionRoute>USB#ROOT_HUB20#4&9bd2e8a&0#{f18a0e88-c30c-11d0-8815-00a0c906bed8} + USB#VID_8087&PID_0024#5&3026c139&0&1#{f18a0e88-c30c-11d0-8815-00a0c906bed8}(1) + VID_2266&PID_0007(7)</USBConnectionRoute></ChronosDeviceInfo>;"<?xml version=""1.0""?>\n<Clock xmlns:dt=""urn:schemas-microsoft-com:datatypes""><Description dt:dt=""string"">E-Prime Primary Realtime Clock</Description><StartTime><Timestamp dt:dt=""int"">0</Timestamp><DateUtc dt:dt=""string"">2021-04-30T15:08:09Z</DateUtc></StartTime><FrequencyChanges><FrequencyChange><Frequency dt:dt=""r8"">2435595</Frequency><Timestamp dt:dt=""r8"">20911740906</Timestamp><Current dt:dt=""r8"">0</Current><DateUtc dt:dt=""string"">2021-04-30T15:08:09Z</DateUtc></FrequencyChange></FrequencyChanges></Clock>\n";EXP2.2_290421-1007-1;60.025;1.0.0.346;1;Chronos;-562658007;Full;3.0.3.80;3.0.3.80;04-30-2021;30/04/2021 15:08;17:08:09;3.0.3.82;2;Chronos;;2;1;2;TESTVV;Generalbloc;;;;pretest;Chronos;10;1;VV_290421/875.png;1;1;10;-25;blocVVstim;listVVTrial;;;;Chronos;0;;0;0;268661;200;;0;0;1;1;Chronos;0;0;268861;300;1;670;269531;1;1;Chronos;0;0;269161;0;1;370;269531;;;;;;;;;;;;;;;;;;;
EXP2.2_290421;1007;1;Chronos;<ChronosDeviceInfo><FriendlyName>MyChronos</FriendlyName><DeviceIndex>1</DeviceIndex><SerialNumber>CHR-04301-1186</SerialNumber><EBNVersion>3.0.3.80</EBNVersion><FirmwareVersion>1.33</FirmwareVersion><APIVersion>1.33</APIVersion><USBHostControllerVersion>2.0</USBHostControllerVersion><USBConnectionRoute>USB#ROOT_HUB20#4&9bd2e8a&0#{f18a0e88-c30c-11d0-8815-00a0c906bed8} + USB#VID_8087&PID_0024#5&3026c139&0&1#{f18a0e88-c30c-11d0-8815-00a0c906bed8}(1) + VID_2266&PID_0007(7)</USBConnectionRoute></ChronosDeviceInfo>;"<?xml version=""1.0""?>\n<Clock xmlns:dt=""urn:schemas-microsoft-com:datatypes""><Description dt:dt=""string"">E-Prime Primary Realtime Clock</Description><StartTime><Timestamp dt:dt=""int"">0</Timestamp><DateUtc dt:dt=""string"">2021-04-30T15:08:09Z</DateUtc></StartTime><FrequencyChanges><FrequencyChange><Frequency dt:dt=""r8"">2435595</Frequency><Timestamp dt:dt=""r8"">20911740906</Timestamp><Current dt:dt=""r8"">0</Current><DateUtc dt:dt=""string"">2021-04-30T15:08:09Z</DateUtc></FrequencyChange></FrequencyChanges></Clock>\n";EXP2.2_290421-1007-1;60.025;1.0.0.346;1;Chronos;-562658007;Full;3.0.3.80;3.0.3.80;04-30-2021;30/04/2021 15:08;17:08:09;3.0.3.82;2;Chronos;;2;1;2;TESTVV;Generalbloc;;;;pretest;Chronos;11;5;VV_290421/915.png;9;1;11;15;blocVVstim;listVVTrial;;;;Chronos;0;;0;0;271060;200;;0;0;1;5;Chronos;0;0;271260;300;5;580;271840;1;5;Chronos;0;0;271560;0;5;280;271840;;;;;;;;;;;;;;;;;;;
EXP2.2_290421;1007;1;Chronos;<ChronosDeviceInfo><FriendlyName>MyChronos</FriendlyName><DeviceIndex>1</DeviceIndex><SerialNumber>CHR-04301-1186</SerialNumber><EBNVersion>3.0.3.80</EBNVersion><FirmwareVersion>1.33</FirmwareVersion><APIVersion>1.33</APIVersion><USBHostControllerVersion>2.0</USBHostControllerVersion><USBConnectionRoute>USB#ROOT_HUB20#4&9bd2e8a&0#{f18a0e88-c30c-11d0-8815-00a0c906bed8} + USB#VID_8087&PID_0024#5&3026c139&0&1#{f18a0e88-c30c-11d0-8815-00a0c906bed8}(1) + VID_2266&PID_0007(7)</USBConnectionRoute></ChronosDeviceInfo>;"<?xml version=""1.0""?>\n<Clock xmlns:dt=""urn:schemas-microsoft-com:datatypes""><Description dt:dt=""string"">E-Prime Primary Realtime Clock</Description><StartTime><Timestamp dt:dt=""int"">0</Timestamp><DateUtc dt:dt=""string"">2021-04-30T15:08:09Z</DateUtc></StartTime><FrequencyChanges><FrequencyChange><Frequency dt:dt=""r8"">2435595</Frequency><Timestamp dt:dt=""r8"">20911740906</Timestamp><Current dt:dt=""r8"">0</Current><DateUtc dt:dt=""string"">2021-04-30T15:08:09Z</DateUtc></FrequencyChange></FrequencyChanges></Clock>\n";EXP2.2_290421-1007-1;60.025;1.0.0.346;1;Chronos;-562658007;Full;3.0.3.80;3.0.3.80;04-30-2021;30/04/2021 15:08;17:08:09;3.0.3.82;2;Chronos;;2;1;2;TESTVV;Generalbloc;;;;pretest;Chronos;12;5;VV_290421/915.png;9;1;12;15;blocVVstim;listVVTrial;;;;Chronos;0;;0;0;273359;200;;0;0;1;5;Chronos;0;0;273559;300;5;880;274439;1;5;Chronos;0;0;273859;0;5;580;274439;;;;;;;;;;;;;;;;;;;
EXP2.2_290421;1007;1;Chronos;<ChronosDeviceInfo><FriendlyName>MyChronos</FriendlyName><DeviceIndex>1</DeviceIndex><SerialNumber>CHR-04301-1186</SerialNumber><EBNVersion>3.0.3.80</EBNVersion><FirmwareVersion>1.33</FirmwareVersion><APIVersion>1.33</APIVersion><USBHostControllerVersion>2.0</USBHostControllerVersion><USBConnectionRoute>USB#ROOT_HUB20#4&9bd2e8a&0#{f18a0e88-c30c-11d0-8815-00a0c906bed8} + USB#VID_8087&PID_0024#5&3026c139&0&1#{f18a0e88-c30c-11d0-8815-00a0c906bed8}(1) + VID_2266&PID_0007(7)</USBConnectionRoute></ChronosDeviceInfo>;"<?xml version=""1.0""?>\n<Clock xmlns:dt=""urn:schemas-microsoft-com:datatypes""><Description dt:dt=""string"">E-Prime Primary Realtime Clock</Description><StartTime><Timestamp dt:dt=""int"">0</Timestamp><DateUtc dt:dt=""string"">2021-04-30T15:08:09Z</DateUtc></StartTime><FrequencyChanges><FrequencyChange><Frequency dt:dt=""r8"">2435595</Frequency><Timestamp dt:dt=""r8"">20911740906</Timestamp><Current dt:dt=""r8"">0</Current><DateUtc dt:dt=""string"">2021-04-30T15:08:09Z</DateUtc></FrequencyChange></FrequencyChanges></Clock>\n";EXP2.2_290421-1007-1;60.025;1.0.0.346;1;Chronos;-562658007;Full;3.0.3.80;3.0.3.80;04-30-2021;30/04/2021 15:08;17:08:09;3.0.3.82;2;Chronos;;2;1;2;TESTVV;Generalbloc;;;;pretest;Chronos;13;15;VV_290421/900.png;6;1;13;0;blocVVstim;listVVTrial;;;;Chronos;0;;0;0;275958;200;;0;0;0;15;Chronos;0;0;276158;300;5;1033;277191;0;15;Chronos;0;0;276458;0;5;733;277191;;;;;;;;;;;;;;;;;;;
EXP2.2_290421;1007;1;Chronos;<ChronosDeviceInfo><FriendlyName>MyChronos</FriendlyName><DeviceIndex>1</DeviceIndex><SerialNumber>CHR-04301-1186</SerialNumber><EBNVersion>3.0.3.80</EBNVersion><FirmwareVersion>1.33</FirmwareVersion><APIVersion>1.33</APIVersion><USBHostControllerVersion>2.0</USBHostControllerVersion><USBConnectionRoute>USB#ROOT_HUB20#4&9bd2e8a&0#{f18a0e88-c30c-11d0-8815-00a0c906bed8} + USB#VID_8087&PID_0024#5&3026c139&0&1#{f18a0e88-c30c-11d0-8815-00a0c906bed8}(1) + VID_2266&PID_0007(7)</USBConnectionRoute></ChronosDeviceInfo>;"<?xml version=""1.0""?>\n<Clock xmlns:dt=""urn:schemas-microsoft-com:datatypes""><Description dt:dt=""string"">E-Prime Primary Realtime Clock</Description><StartTime><Timestamp dt:dt=""int"">0</Timestamp><DateUtc dt:dt=""string"">2021-04-30T15:08:09Z</DateUtc></StartTime><FrequencyChanges><FrequencyChange><Frequency dt:dt=""r8"">2435595</Frequency><Timestamp dt:dt=""r8"">20911740906</Timestamp><Current dt:dt=""r8"">0</Current><DateUtc dt:dt=""string"">2021-04-30T15:08:09Z</DateUtc></FrequencyChange></FrequencyChanges></Clock>\n";EXP2.2_290421-1007-1;60.025;1.0.0.346;1;Chronos;-562658007;Full;3.0.3.80;3.0.3.80;04-30-2021;30/04/2021 15:08;17:08:09;3.0.3.82;2;Chronos;;2;1;2;TESTVV;Generalbloc;;;;pretest;Chronos;14;5;VV_290421/910.png;8;1;14;10;blocVVstim;listVVTrial;;;;Chronos;0;;0;0;278707;200;;0;0;1;5;Chronos;0;0;278907;300;5;1123;280030;1;5;Chronos;0;0;279207;0;5;823;280030;;;;;;;;;;;;;;;;;;;
EXP2.2_290421;1007;1;Chronos;<ChronosDeviceInfo><FriendlyName>MyChronos</FriendlyName><DeviceIndex>1</DeviceIndex><SerialNumber>CHR-04301-1186</SerialNumber><EBNVersion>3.0.3.80</EBNVersion><FirmwareVersion>1.33</FirmwareVersion><APIVersion>1.33</APIVersion><USBHostControllerVersion>2.0</USBHostControllerVersion><USBConnectionRoute>USB#ROOT_HUB20#4&9bd2e8a&0#{f18a0e88-c30c-11d0-8815-00a0c906bed8} + USB#VID_8087&PID_0024#5&3026c139&0&1#{f18a0e88-c30c-11d0-8815-00a0c906bed8}(1) + VID_2266&PID_0007(7)</USBConnectionRoute></ChronosDeviceInfo>;"<?xml version=""1.0""?>\n<Clock xmlns:dt=""urn:schemas-microsoft-com:datatypes""><Description dt:dt=""string"">E-Prime Primary Realtime Clock</Description><StartTime><Timestamp dt:dt=""int"">0</Timestamp><DateUtc dt:dt=""string"">2021-04-30T15:08:09Z</DateUtc></StartTime><FrequencyChanges><FrequencyChange><Frequency dt:dt=""r8"">2435595</Frequency><Timestamp dt:dt=""r8"">20911740906</Timestamp><Current dt:dt=""r8"">0</Current><DateUtc dt:dt=""string"">2021-04-30T15:08:09Z</DateUtc></FrequencyChange></FrequencyChanges></Clock>\n";EXP2.2_290421-1007-1;60.025;1.0.0.346;1;Chronos;-562658007;Full;3.0.3.80;3.0.3.80;04-30-2021;30/04/2021 15:08;17:08:09;3.0.3.82;2;Chronos;;2;1;2;TESTVV;Generalbloc;;;;pretest;Chronos;15;1;VV_290421/885.png;3;1;15;-15;blocVVstim;listVVTrial;;;;Chronos;0;;0;0;281556;200;;0;0;1;1;Chronos;0;0;281756;299;1;930;282686;1;1;Chronos;1;-1;282055;0;1;631;282686;;;;;;;;;;;;;;;;;;;
EXP2.2_290421;1007;1;Chronos;<ChronosDeviceInfo><FriendlyName>MyChronos</FriendlyName><DeviceIndex>1</DeviceIndex><SerialNumber>CHR-04301-1186</SerialNumber><EBNVersion>3.0.3.80</EBNVersion><FirmwareVersion>1.33</FirmwareVersion><APIVersion>1.33</APIVersion><USBHostControllerVersion>2.0</USBHostControllerVersion><USBConnectionRoute>USB#ROOT_HUB20#4&9bd2e8a&0#{f18a0e88-c30c-11d0-8815-00a0c906bed8} + USB#VID_8087&PID_0024#5&3026c139&0&1#{f18a0e88-c30c-11d0-8815-00a0c906bed8}(1) + VID_2266&PID_0007(7)</USBConnectionRoute></ChronosDeviceInfo>;"<?xml version=""1.0""?>\n<Clock xmlns:dt=""urn:schemas-microsoft-com:datatypes""><Description dt:dt=""string"">E-Prime Primary Realtime Clock</Description><StartTime><Timestamp dt:dt=""int"">0</Timestamp><DateUtc dt:dt=""string"">2021-04-30T15:08:09Z</DateUtc></StartTime><FrequencyChanges><FrequencyChange><Frequency dt:dt=""r8"">2435595</Frequency><Timestamp dt:dt=""r8"">20911740906</Timestamp><Current dt:dt=""r8"">0</Current><DateUtc dt:dt=""string"">2021-04-30T15:08:09Z</DateUtc></FrequencyChange></FrequencyChanges></Clock>\n";EXP2.2_290421-1007-1;60.025;1.0.0.346;1;Chronos;-562658007;Full;3.0.3.80;3.0.3.80;04-30-2021;30/04/2021 15:08;17:08:09;3.0.3.82;2;Chronos;;2;1;2;TESTVV;Generalbloc;;;;pretest;Chronos;16;5;VV_290421/905.png;7;1;16;5;blocVVstim;listVVTrial;;;;Chronos;0;;0;0;284205;199;;0;0;1;5;Chronos;1;-1;284404;300;5;719;285123;1;5;Chronos;0;0;284704;0;5;419;285123;;;;;;;;;;;;;;;;;;;
EXP2.2_290421;1007;1;Chronos;<ChronosDeviceInfo><FriendlyName>MyChronos</FriendlyName><DeviceIndex>1</DeviceIndex><SerialNumber>CHR-04301-1186</SerialNumber><EBNVersion>3.0.3.80</EBNVersion><FirmwareVersion>1.33</FirmwareVersion><APIVersion>1.33</APIVersion><USBHostControllerVersion>2.0</USBHostControllerVersion><USBConnectionRoute>USB#ROOT_HUB20#4&9bd2e8a&0#{f18a0e88-c30c-11d0-8815-00a0c906bed8} + USB#VID_8087&PID_0024#5&3026c139&0&1#{f18a0e88-c30c-11d0-8815-00a0c906bed8}(1) + VID_2266&PID_0007(7)</USBConnectionRoute></ChronosDeviceInfo>;"<?xml version=""1.0""?>\n<Clock xmlns:dt=""urn:schemas-microsoft-com:datatypes""><Description dt:dt=""string"">E-Prime Primary Realtime Clock</Description><StartTime><Timestamp dt:dt=""int"">0</Timestamp><DateUtc dt:dt=""string"">2021-04-30T15:08:09Z</DateUtc></StartTime><FrequencyChanges><FrequencyChange><Frequency dt:dt=""r8"">2435595</Frequency><Timestamp dt:dt=""r8"">20911740906</Timestamp><Current dt:dt=""r8"">0</Current><DateUtc dt:dt=""string"">2021-04-30T15:08:09Z</DateUtc></FrequencyChange></FrequencyChanges></Clock>\n";EXP2.2_290421-1007-1;60.025;1.0.0.346;1;Chronos;-562658007;Full;3.0.3.80;3.0.3.80;04-30-2021;30/04/2021 15:08;17:08:09;3.0.3.82;2;Chronos;;2;1;2;TESTVV;Generalbloc;;;;pretest;Chronos;17;5;VV_290421/920.png;10;1;17;20;blocVVstim;listVVTrial;;;;Chronos;0;;0;-1;286637;200;;0;0;1;5;Chronos;0;0;286837;300;5;784;287621;1;5;Chronos;0;0;287137;0;5;484;287621;;;;;;;;;;;;;;;;;;;
EXP2.2_290421;1007;1;Chronos;<ChronosDeviceInfo><FriendlyName>MyChronos</FriendlyName><DeviceIndex>1</DeviceIndex><SerialNumber>CHR-04301-1186</SerialNumber><EBNVersion>3.0.3.80</EBNVersion><FirmwareVersion>1.33</FirmwareVersion><APIVersion>1.33</APIVersion><USBHostControllerVersion>2.0</USBHostControllerVersion><USBConnectionRoute>USB#ROOT_HUB20#4&9bd2e8a&0#{f18a0e88-c30c-11d0-8815-00a0c906bed8} + USB#VID_8087&PID_0024#5&3026c139&0&1#{f18a0e88-c30c-11d0-8815-00a0c906bed8}(1) + VID_2266&PID_0007(7)</USBConnectionRoute></ChronosDeviceInfo>;"<?xml version=""1.0""?>\n<Clock xmlns:dt=""urn:schemas-microsoft-com:datatypes""><Description dt:dt=""string"">E-Prime Primary Realtime Clock</Description><StartTime><Timestamp dt:dt=""int"">0</Timestamp><DateUtc dt:dt=""string"">2021-04-30T15:08:09Z</DateUtc></StartTime><FrequencyChanges><FrequencyChange><Frequency dt:dt=""r8"">2435595</Frequency><Timestamp dt:dt=""r8"">20911740906</Timestamp><Current dt:dt=""r8"">0</Current><DateUtc dt:dt=""string"">2021-04-30T15:08:09Z</DateUtc></FrequencyChange></FrequencyChanges></Clock>\n";EXP2.2_290421-1007-1;60.025;1.0.0.346;1;Chronos;-562658007;Full;3.0.3.80;3.0.3.80;04-30-2021;30/04/2021 15:08;17:08:09;3.0.3.82;2;Chronos;;2;1;2;TESTVV;Generalbloc;;;;pretest;Chronos;18;5;VV_290421/915.png;9;1;18;15;blocVVstim;listVVTrial;;;;Chronos;0;;0;-1;289136;200;;0;0;1;5;Chronos;0;0;289336;300;5;780;290116;1;5;Chronos;0;0;289636;0;5;480;290116;;;;;;;;;;;;;;;;;;;
EXP2.2_290421;1007;1;Chronos;<ChronosDeviceInfo><FriendlyName>MyChronos</FriendlyName><DeviceIndex>1</DeviceIndex><SerialNumber>CHR-04301-1186</SerialNumber><EBNVersion>3.0.3.80</EBNVersion><FirmwareVersion>1.33</FirmwareVersion><APIVersion>1.33</APIVersion><USBHostControllerVersion>2.0</USBHostControllerVersion><USBConnectionRoute>USB#ROOT_HUB20#4&9bd2e8a&0#{f18a0e88-c30c-11d0-8815-00a0c906bed8} + USB#VID_8087&PID_0024#5&3026c139&0&1#{f18a0e88-c30c-11d0-8815-00a0c906bed8}(1) + VID_2266&PID_0007(7)</USBConnectionRoute></ChronosDeviceInfo>;"<?xml version=""1.0""?>\n<Clock xmlns:dt=""urn:schemas-microsoft-com:datatypes""><Description dt:dt=""string"">E-Prime Primary Realtime Clock</Description><StartTime><Timestamp dt:dt=""int"">0</Timestamp><DateUtc dt:dt=""string"">2021-04-30T15:08:09Z</DateUtc></StartTime><FrequencyChanges><FrequencyChange><Frequency dt:dt=""r8"">2435595</Frequency><Timestamp dt:dt=""r8"">20911740906</Timestamp><Current dt:dt=""r8"">0</Current><DateUtc dt:dt=""string"">2021-04-30T15:08:09Z</DateUtc></FrequencyChange></FrequencyChanges></Clock>\n";EXP2.2_290421-1007-1;60.025;1.0.0.346;1;Chronos;-562658007;Full;3.0.3.80;3.0.3.80;04-30-2021;30/04/2021 15:08;17:08:09;3.0.3.82;2;Chronos;;2;1;2;TESTVV;Generalbloc;;;;pretest;Chronos;19;1;VV_290421/875.png;1;1;19;-25;blocVVstim;listVVTrial;;;;Chronos;0;;0;-1;291635;200;;0;0;1;1;Chronos;0;0;291835;300;1;626;292461;1;1;Chronos;0;0;292135;0;1;326;292461;;;;;;;;;;;;;;;;;;;
EXP2.2_290421;1007;1;Chronos;<ChronosDeviceInfo><FriendlyName>MyChronos</FriendlyName><DeviceIndex>1</DeviceIndex><SerialNumber>CHR-04301-1186</SerialNumber><EBNVersion>3.0.3.80</EBNVersion><FirmwareVersion>1.33</FirmwareVersion><APIVersion>1.33</APIVersion><USBHostControllerVersion>2.0</USBHostControllerVersion><USBConnectionRoute>USB#ROOT_HUB20#4&9bd2e8a&0#{f18a0e88-c30c-11d0-8815-00a0c906bed8} + USB#VID_8087&PID_0024#5&3026c139&0&1#{f18a0e88-c30c-11d0-8815-00a0c906bed8}(1) + VID_2266&PID_0007(7)</USBConnectionRoute></ChronosDeviceInfo>;"<?xml version=""1.0""?>\n<Clock xmlns:dt=""urn:schemas-microsoft-com:datatypes""><Description dt:dt=""string"">E-Prime Primary Realtime Clock</Description><StartTime><Timestamp dt:dt=""int"">0</Timestamp><DateUtc dt:dt=""string"">2021-04-30T15:08:09Z</DateUtc></StartTime><FrequencyChanges><FrequencyChange><Frequency dt:dt=""r8"">2435595</Frequency><Timestamp dt:dt=""r8"">20911740906</Timestamp><Current dt:dt=""r8"">0</Current><DateUtc dt:dt=""string"">2021-04-30T15:08:09Z</DateUtc></FrequencyChange></FrequencyChanges></Clock>\n";EXP2.2_290421-1007-1;60.025;1.0.0.346;1;Chronos;-562658007;Full;3.0.3.80;3.0.3.80;04-30-2021;30/04/2021 15:08;17:08:09;3.0.3.82;2;Chronos;;2;1;2;TESTVV;Generalbloc;;;;pretest;Chronos;20;5;VV_290421/910.png;8;1;20;10;blocVVstim;listVVTrial;;;;Chronos;0;;0;-1;293984;200;;0;0;1;5;Chronos;0;0;294184;300;5;642;294826;1;5;Chronos;0;0;294484;0;5;342;294826;;;;;;;;;;;;;;;;;;;
EXP2.2_290421;1007;1;Chronos;<ChronosDeviceInfo><FriendlyName>MyChronos</FriendlyName><DeviceIndex>1</DeviceIndex><SerialNumber>CHR-04301-1186</SerialNumber><EBNVersion>3.0.3.80</EBNVersion><FirmwareVersion>1.33</FirmwareVersion><APIVersion>1.33</APIVersion><USBHostControllerVersion>2.0</USBHostControllerVersion><USBConnectionRoute>USB#ROOT_HUB20#4&9bd2e8a&0#{f18a0e88-c30c-11d0-8815-00a0c906bed8} + USB#VID_8087&PID_0024#5&3026c139&0&1#{f18a0e88-c30c-11d0-8815-00a0c906bed8}(1) + VID_2266&PID_0007(7)</USBConnectionRoute></ChronosDeviceInfo>;"<?xml version=""1.0""?>\n<Clock xmlns:dt=""urn:schemas-microsoft-com:datatypes""><Description dt:dt=""string"">E-Prime Primary Realtime Clock</Description><StartTime><Timestamp dt:dt=""int"">0</Timestamp><DateUtc dt:dt=""string"">2021-04-30T15:08:09Z</DateUtc></StartTime><FrequencyChanges><FrequencyChange><Frequency dt:dt=""r8"">2435595</Frequency><Timestamp dt:dt=""r8"">20911740906</Timestamp><Current dt:dt=""r8"">0</Current><DateUtc dt:dt=""string"">2021-04-30T15:08:09Z</DateUtc></FrequencyChange></FrequencyChanges></Clock>\n";EXP2.2_290421-1007-1;60.025;1.0.0.346;1;Chronos;-562658007;Full;3.0.3.80;3.0.3.80;04-30-2021;30/04/2021 15:08;17:08:09;3.0.3.82;2;Chronos;;2;1;2;TESTVV;Generalbloc;;;;pretest;Chronos;21;1;VV_290421/890.png;4;1;21;-10;blocVVstim;listVVTrial;;;;Chronos;0;;0;0;296350;200;;0;0;1;1;Chronos;0;0;296550;300;1;1313;297863;1;1;Chronos;0;0;296850;0;1;1013;297863;;;;;;;;;;;;;;;;;;;
EXP2.2_290421;1007;1;Chronos;<ChronosDeviceInfo><FriendlyName>MyChronos</FriendlyName><DeviceIndex>1</DeviceIndex><SerialNumber>CHR-04301-1186</SerialNumber><EBNVersion>3.0.3.80</EBNVersion><FirmwareVersion>1.33</FirmwareVersion><APIVersion>1.33</APIVersion><USBHostControllerVersion>2.0</USBHostControllerVersion><USBConnectionRoute>USB#ROOT_HUB20#4&9bd2e8a&0#{f18a0e88-c30c-11d0-8815-00a0c906bed8} + USB#VID_8087&PID_0024#5&3026c139&0&1#{f18a0e88-c30c-11d0-8815-00a0c906bed8}(1) + VID_2266&PID_0007(7)</USBConnectionRoute></ChronosDeviceInfo>;"<?xml version=""1.0""?>\n<Clock xmlns:dt=""urn:schemas-microsoft-com:datatypes""><Description dt:dt=""string"">E-Prime Primary Realtime Clock</Description><StartTime><Timestamp dt:dt=""int"">0</Timestamp><DateUtc dt:dt=""string"">2021-04-30T15:08:09Z</DateUtc></StartTime><FrequencyChanges><FrequencyChange><Frequency dt:dt=""r8"">2435595</Frequency><Timestamp dt:dt=""r8"">20911740906</Timestamp><Current dt:dt=""r8"">0</Current><DateUtc dt:dt=""string"">2021-04-30T15:08:09Z</DateUtc></FrequencyChange></FrequencyChanges></Clock>\n";EXP2.2_290421-1007-1;60.025;1.0.0.346;1;Chronos;-562658007;Full;3.0.3.80;3.0.3.80;04-30-2021;30/04/2021 15:08;17:08:09;3.0.3.82;2;Chronos;;2;1;2;TESTVV;Generalbloc;;;;pretest;Chronos;22;1;VV_290421/875.png;1;1;22;-25;blocVVstim;listVVTrial;;;;Chronos;0;;0;0;299382;200;;0;0;1;1;Chronos;0;0;299582;300;1;970;300552;1;1;Chronos;0;0;299882;0;1;670;300552;;;;;;;;;;;;;;;;;;;
EXP2.2_290421;1007;1;Chronos;<ChronosDeviceInfo><FriendlyName>MyChronos</FriendlyName><DeviceIndex>1</DeviceIndex><SerialNumber>CHR-04301-1186</SerialNumber><EBNVersion>3.0.3.80</EBNVersion><FirmwareVersion>1.33</FirmwareVersion><APIVersion>1.33</APIVersion><USBHostControllerVersion>2.0</USBHostControllerVersion><USBConnectionRoute>USB#ROOT_HUB20#4&9bd2e8a&0#{f18a0e88-c30c-11d0-8815-00a0c906bed8} + USB#VID_8087&PID_0024#5&3026c139&0&1#{f18a0e88-c30c-11d0-8815-00a0c906bed8}(1) + VID_2266&PID_0007(7)</USBConnectionRoute></ChronosDeviceInfo>;"<?xml version=""1.0""?>\n<Clock xmlns:dt=""urn:schemas-microsoft-com:datatypes""><Description dt:dt=""string"">E-Prime Primary Realtime Clock</Description><StartTime><Timestamp dt:dt=""int"">0</Timestamp><DateUtc dt:dt=""string"">2021-04-30T15:08:09Z</DateUtc></StartTime><FrequencyChanges><FrequencyChange><Frequency dt:dt=""r8"">2435595</Frequency><Timestamp dt:dt=""r8"">20911740906</Timestamp><Current dt:dt=""r8"">0</Current><DateUtc dt:dt=""string"">2021-04-30T15:08:09Z</DateUtc></FrequencyChange></FrequencyChanges></Clock>\n";EXP2.2_290421-1007-1;60.025;1.0.0.346;1;Chronos;-562658007;Full;3.0.3.80;3.0.3.80;04-30-2021;30/04/2021 15:08;17:08:09;3.0.3.82;2;Chronos;;2;1;2;TESTVV;Generalbloc;;;;pretest;Chronos;23;1;VV_290421/875.png;1;1;23;-25;blocVVstim;listVVTrial;;;;Chronos;0;;0;-1;302064;200;;0;0;1;1;Chronos;0;0;302264;300;1;814;303078;1;1;Chronos;0;0;302564;0;1;514;303078;;;;;;;;;;;;;;;;;;;
EXP2.2_290421;1007;1;Chronos;<ChronosDeviceInfo><FriendlyName>MyChronos</FriendlyName><DeviceIndex>1</DeviceIndex><SerialNumber>CHR-04301-1186</SerialNumber><EBNVersion>3.0.3.80</EBNVersion><FirmwareVersion>1.33</FirmwareVersion><APIVersion>1.33</APIVersion><USBHostControllerVersion>2.0</USBHostControllerVersion><USBConnectionRoute>USB#ROOT_HUB20#4&9bd2e8a&0#{f18a0e88-c30c-11d0-8815-00a0c906bed8} + USB#VID_8087&PID_0024#5&3026c139&0&1#{f18a0e88-c30c-11d0-8815-00a0c906bed8}(1) + VID_2266&PID_0007(7)</USBConnectionRoute></ChronosDeviceInfo>;"<?xml version=""1.0""?>\n<Clock xmlns:dt=""urn:schemas-microsoft-com:datatypes""><Description dt:dt=""string"">E-Prime Primary Realtime Clock</Description><StartTime><Timestamp dt:dt=""int"">0</Timestamp><DateUtc dt:dt=""string"">2021-04-30T15:08:09Z</DateUtc></StartTime><FrequencyChanges><FrequencyChange><Frequency dt:dt=""r8"">2435595</Frequency><Timestamp dt:dt=""r8"">20911740906</Timestamp><Current dt:dt=""r8"">0</Current><DateUtc dt:dt=""string"">2021-04-30T15:08:09Z</DateUtc></FrequencyChange></FrequencyChanges></Clock>\n";EXP2.2_290421-1007-1;60.025;1.0.0.346;1;Chronos;-562658007;Full;3.0.3.80;3.0.3.80;04-30-2021;30/04/2021 15:08;17:08:09;3.0.3.82;2;Chronos;;2;1;2;TESTVV;Generalbloc;;;;pretest;Chronos;24;5;VV_290421/920.png;10;1;24;20;blocVVstim;listVVTrial;;;;Chronos;0;;0;0;304597;199;;0;0;1;5;Chronos;1;-1;304796;300;5;793;305589;1;5;Chronos;0;0;305096;0;5;493;305589;;;;;;;;;;;;;;;;;;;
EXP2.2_290421;1007;1;Chronos;<ChronosDeviceInfo><FriendlyName>MyChronos</FriendlyName><DeviceIndex>1</DeviceIndex><SerialNumber>CHR-04301-1186</SerialNumber><EBNVersion>3.0.3.80</EBNVersion><FirmwareVersion>1.33</FirmwareVersion><APIVersion>1.33</APIVersion><USBHostControllerVersion>2.0</USBHostControllerVersion><USBConnectionRoute>USB#ROOT_HUB20#4&9bd2e8a&0#{f18a0e88-c30c-11d0-8815-00a0c906bed8} + USB#VID_8087&PID_0024#5&3026c139&0&1#{f18a0e88-c30c-11d0-8815-00a0c906bed8}(1) + VID_2266&PID_0007(7)</USBConnectionRoute></ChronosDeviceInfo>;"<?xml version=""1.0""?>\n<Clock xmlns:dt=""urn:schemas-microsoft-com:datatypes""><Description dt:dt=""string"">E-Prime Primary Realtime Clock</Description><StartTime><Timestamp dt:dt=""int"">0</Timestamp><DateUtc dt:dt=""string"">2021-04-30T15:08:09Z</DateUtc></StartTime><FrequencyChanges><FrequencyChange><Frequency dt:dt=""r8"">2435595</Frequency><Timestamp dt:dt=""r8"">20911740906</Timestamp><Current dt:dt=""r8"">0</Current><DateUtc dt:dt=""string"">2021-04-30T15:08:09Z</DateUtc></FrequencyChange></FrequencyChanges></Clock>\n";EXP2.2_290421-1007-1;60.025;1.0.0.346;1;Chronos;-562658007;Full;3.0.3.80;3.0.3.80;04-30-2021;30/04/2021 15:08;17:08:09;3.0.3.82;2;Chronos;;2;1;2;TESTVV;Generalbloc;;;;pretest;Chronos;25;15;VV_290421/900.png;6;1;25;0;blocVVstim;listVVTrial;;;;Chronos;0;;0;-1;307112;200;;0;0;0;15;Chronos;0;0;307312;300;1;2205;309517;0;15;Chronos;0;0;307612;0;1;1905;309517;;;;;;;;;;;;;;;;;;;
EXP2.2_290421;1007;1;Chronos;<ChronosDeviceInfo><FriendlyName>MyChronos</FriendlyName><DeviceIndex>1</DeviceIndex><SerialNumber>CHR-04301-1186</SerialNumber><EBNVersion>3.0.3.80</EBNVersion><FirmwareVersion>1.33</FirmwareVersion><APIVersion>1.33</APIVersion><USBHostControllerVersion>2.0</USBHostControllerVersion><USBConnectionRoute>USB#ROOT_HUB20#4&9bd2e8a&0#{f18a0e88-c30c-11d0-8815-00a0c906bed8} + USB#VID_8087&PID_0024#5&3026c139&0&1#{f18a0e88-c30c-11d0-8815-00a0c906bed8}(1) + VID_2266&PID_0007(7)</USBConnectionRoute></ChronosDeviceInfo>;"<?xml version=""1.0""?>\n<Clock xmlns:dt=""urn:schemas-microsoft-com:datatypes""><Description dt:dt=""string"">E-Prime Primary Realtime Clock</Description><StartTime><Timestamp dt:dt=""int"">0</Timestamp><DateUtc dt:dt=""string"">2021-04-30T15:08:09Z</DateUtc></StartTime><FrequencyChanges><FrequencyChange><Frequency dt:dt=""r8"">2435595</Frequency><Timestamp dt:dt=""r8"">20911740906</Timestamp><Current dt:dt=""r8"">0</Current><DateUtc dt:dt=""string"">2021-04-30T15:08:09Z</DateUtc></FrequencyChange></FrequencyChanges></Clock>\n";EXP2.2_290421-1007-1;60.025;1.0.0.346;1;Chronos;-562658007;Full;3.0.3.80;3.0.3.80;04-30-2021;30/04/2021 15:08;17:08:09;3.0.3.82;2;Chronos;;2;1;2;TESTVV;Generalbloc;;;;pretest;Chronos;26;1;VV_290421/875.png;1;1;26;-25;blocVVstim;listVVTrial;;;;Chronos;0;;0;0;311044;200;;0;0;1;1;Chronos;0;0;311244;300;1;922;312166;1;1;Chronos;0;0;311544;0;1;622;312166;;;;;;;;;;;;;;;;;;;
EXP2.2_290421;1007;1;Chronos;<ChronosDeviceInfo><FriendlyName>MyChronos</FriendlyName><DeviceIndex>1</DeviceIndex><SerialNumber>CHR-04301-1186</SerialNumber><EBNVersion>3.0.3.80</EBNVersion><FirmwareVersion>1.33</FirmwareVersion><APIVersion>1.33</APIVersion><USBHostControllerVersion>2.0</USBHostControllerVersion><USBConnectionRoute>USB#ROOT_HUB20#4&9bd2e8a&0#{f18a0e88-c30c-11d0-8815-00a0c906bed8} + USB#VID_8087&PID_0024#5&3026c139&0&1#{f18a0e88-c30c-11d0-8815-00a0c906bed8}(1) + VID_2266&PID_0007(7)</USBConnectionRoute></ChronosDeviceInfo>;"<?xml version=""1.0""?>\n<Clock xmlns:dt=""urn:schemas-microsoft-com:datatypes""><Description dt:dt=""string"">E-Prime Primary Realtime Clock</Description><StartTime><Timestamp dt:dt=""int"">0</Timestamp><DateUtc dt:dt=""string"">2021-04-30T15:08:09Z</DateUtc></StartTime><FrequencyChanges><FrequencyChange><Frequency dt:dt=""r8"">2435595</Frequency><Timestamp dt:dt=""r8"">20911740906</Timestamp><Current dt:dt=""r8"">0</Current><DateUtc dt:dt=""string"">2021-04-30T15:08:09Z</DateUtc></FrequencyChange></FrequencyChanges></Clock>\n";EXP2.2_290421-1007-1;60.025;1.0.0.346;1;Chronos;-562658007;Full;3.0.3.80;3.0.3.80;04-30-2021;30/04/2021 15:08;17:08:09;3.0.3.82;2;Chronos;;2;1;2;TESTVV;Generalbloc;;;;pretest;Chronos;27;5;VV_290421/925.png;11;1;27;25;blocVVstim;listVVTrial;;;;Chronos;0;;0;0;313693;200;;0;0;1;5;Chronos;0;0;313893;300;5;768;314661;1;5;Chronos;0;0;314193;0;5;468;314661;;;;;;;;;;;;;;;;;;;
EXP2.2_290421;1007;1;Chronos;<ChronosDeviceInfo><FriendlyName>MyChronos</FriendlyName><DeviceIndex>1</DeviceIndex><SerialNumber>CHR-04301-1186</SerialNumber><EBNVersion>3.0.3.80</EBNVersion><FirmwareVersion>1.33</FirmwareVersion><APIVersion>1.33</APIVersion><USBHostControllerVersion>2.0</USBHostControllerVersion><USBConnectionRoute>USB#ROOT_HUB20#4&9bd2e8a&0#{f18a0e88-c30c-11d0-8815-00a0c906bed8} + USB#VID_8087&PID_0024#5&3026c139&0&1#{f18a0e88-c30c-11d0-8815-00a0c906bed8}(1) + VID_2266&PID_0007(7)</USBConnectionRoute></ChronosDeviceInfo>;"<?xml version=""1.0""?>\n<Clock xmlns:dt=""urn:schemas-microsoft-com:datatypes""><Description dt:dt=""string"">E-Prime Primary Realtime Clock</Description><StartTime><Timestamp dt:dt=""int"">0</Timestamp><DateUtc dt:dt=""string"">2021-04-30T15:08:09Z</DateUtc></StartTime><FrequencyChanges><FrequencyChange><Frequency dt:dt=""r8"">2435595</Frequency><Timestamp dt:dt=""r8"">20911740906</Timestamp><Current dt:dt=""r8"">0</Current><DateUtc dt:dt=""string"">2021-04-30T15:08:09Z</DateUtc></FrequencyChange></FrequencyChanges></Clock>\n";EXP2.2_290421-1007-1;60.025;1.0.0.346;1;Chronos;-562658007;Full;3.0.3.80;3.0.3.80;04-30-2021;30/04/2021 15:08;17:08:09;3.0.3.82;2;Chronos;;2;1;2;TESTVV;Generalbloc;;;;pretest;Chronos;28;5;VV_290421/925.png;11;1;28;25;blocVVstim;listVVTrial;;;;Chronos;0;;0;0;316192;200;;0;0;1;5;Chronos;0;0;316392;300;5;552;316944;1;5;Chronos;0;0;316692;0;5;252;316944;;;;;;;;;;;;;;;;;;;
EXP2.2_290421;1007;1;Chronos;<ChronosDeviceInfo><FriendlyName>MyChronos</FriendlyName><DeviceIndex>1</DeviceIndex><SerialNumber>CHR-04301-1186</SerialNumber><EBNVersion>3.0.3.80</EBNVersion><FirmwareVersion>1.33</FirmwareVersion><APIVersion>1.33</APIVersion><USBHostControllerVersion>2.0</USBHostControllerVersion><USBConnectionRoute>USB#ROOT_HUB20#4&9bd2e8a&0#{f18a0e88-c30c-11d0-8815-00a0c906bed8} + USB#VID_8087&PID_0024#5&3026c139&0&1#{f18a0e88-c30c-11d0-8815-00a0c906bed8}(1) + VID_2266&PID_0007(7)</USBConnectionRoute></ChronosDeviceInfo>;"<?xml version=""1.0""?>\n<Clock xmlns:dt=""urn:schemas-microsoft-com:datatypes""><Description dt:dt=""string"">E-Prime Primary Realtime Clock</Description><StartTime><Timestamp dt:dt=""int"">0</Timestamp><DateUtc dt:dt=""string"">2021-04-30T15:08:09Z</DateUtc></StartTime><FrequencyChanges><FrequencyChange><Frequency dt:dt=""r8"">2435595</Frequency><Timestamp dt:dt=""r8"">20911740906</Timestamp><Current dt:dt=""r8"">0</Current><DateUtc dt:dt=""string"">2021-04-30T15:08:09Z</DateUtc></FrequencyChange></FrequencyChanges></Clock>\n";EXP2.2_290421-1007-1;60.025;1.0.0.346;1;Chronos;-562658007;Full;3.0.3.80;3.0.3.80;04-30-2021;30/04/2021 15:08;17:08:09;3.0.3.82;2;Chronos;;2;1;2;TESTVV;Generalbloc;;;;pretest;Chronos;29;5;VV_290421/910.png;8;1;29;10;blocVVstim;listVVTrial;;;;Chronos;0;;0;0;318458;200;;0;0;1;5;Chronos;0;0;318658;299;5;1033;319691;1;5;Chronos;1;-1;318957;0;5;734;319691;;;;;;;;;;;;;;;;;;;
EXP2.2_290421;1007;1;Chronos;<ChronosDeviceInfo><FriendlyName>MyChronos</FriendlyName><DeviceIndex>1</DeviceIndex><SerialNumber>CHR-04301-1186</SerialNumber><EBNVersion>3.0.3.80</EBNVersion><FirmwareVersion>1.33</FirmwareVersion><APIVersion>1.33</APIVersion><USBHostControllerVersion>2.0</USBHostControllerVersion><USBConnectionRoute>USB#ROOT_HUB20#4&9bd2e8a&0#{f18a0e88-c30c-11d0-8815-00a0c906bed8} + USB#VID_8087&PID_0024#5&3026c139&0&1#{f18a0e88-c30c-11d0-8815-00a0c906bed8}(1) + VID_2266&PID_0007(7)</USBConnectionRoute></ChronosDeviceInfo>;"<?xml version=""1.0""?>\n<Clock xmlns:dt=""urn:schemas-microsoft-com:datatypes""><Description dt:dt=""string"">E-Prime Primary Realtime Clock</Description><StartTime><Timestamp dt:dt=""int"">0</Timestamp><DateUtc dt:dt=""string"">2021-04-30T15:08:09Z</DateUtc></StartTime><FrequencyChanges><FrequencyChange><Frequency dt:dt=""r8"">2435595</Frequency><Timestamp dt:dt=""r8"">20911740906</Timestamp><Current dt:dt=""r8"">0</Current><DateUtc dt:dt=""string"">2021-04-30T15:08:09Z</DateUtc></FrequencyChange></FrequencyChanges></Clock>\n";EXP2.2_290421-1007-1;60.025;1.0.0.346;1;Chronos;-562658007;Full;3.0.3.80;3.0.3.80;04-30-2021;30/04/2021 15:08;17:08:09;3.0.3.82;2;Chronos;;2;1;2;TESTVV;Generalbloc;;;;pretest;Chronos;30;5;VV_290421/920.png;10;1;30;20;blocVVstim;listVVTrial;;;;Chronos;0;;0;0;321207;199;;0;0;1;5;Chronos;1;-1;321406;300;5;706;322112;1;5;Chronos;0;0;321706;0;5;406;322112;;;;;;;;;;;;;;;;;;;
EXP2.2_290421;1007;1;Chronos;<ChronosDeviceInfo><FriendlyName>MyChronos</FriendlyName><DeviceIndex>1</DeviceIndex><SerialNumber>CHR-04301-1186</SerialNumber><EBNVersion>3.0.3.80</EBNVersion><FirmwareVersion>1.33</FirmwareVersion><APIVersion>1.33</APIVersion><USBHostControllerVersion>2.0</USBHostControllerVersion><USBConnectionRoute>USB#ROOT_HUB20#4&9bd2e8a&0#{f18a0e88-c30c-11d0-8815-00a0c906bed8} + USB#VID_8087&PID_0024#5&3026c139&0&1#{f18a0e88-c30c-11d0-8815-00a0c906bed8}(1) + VID_2266&PID_0007(7)</USBConnectionRoute></ChronosDeviceInfo>;"<?xml version=""1.0""?>\n<Clock xmlns:dt=""urn:schemas-microsoft-com:datatypes""><Description dt:dt=""string"">E-Prime Primary Realtime Clock</Description><StartTime><Timestamp dt:dt=""int"">0</Timestamp><DateUtc dt:dt=""string"">2021-04-30T15:08:09Z</DateUtc></StartTime><FrequencyChanges><FrequencyChange><Frequency dt:dt=""r8"">2435595</Frequency><Timestamp dt:dt=""r8"">20911740906</Timestamp><Current dt:dt=""r8"">0</Current><DateUtc dt:dt=""string"">2021-04-30T15:08:09Z</DateUtc></FrequencyChange></FrequencyChanges></Clock>\n";EXP2.2_290421-1007-1;60.025;1.0.0.346;1;Chronos;-562658007;Full;3.0.3.80;3.0.3.80;04-30-2021;30/04/2021 15:08;17:08:09;3.0.3.82;2;Chronos;;2;1;2;TESTVV;Generalbloc;;;;pretest;Chronos;31;1;VV_290421/885.png;3;1;31;-15;blocVVstim;listVVTrial;;;;Chronos;0;;0;0;323639;200;;0;0;1;1;Chronos;0;0;323839;300;1;804;324643;1;1;Chronos;0;0;324139;0;1;504;324643;;;;;;;;;;;;;;;;;;;
EXP2.2_290421;1007;1;Chronos;<ChronosDeviceInfo><FriendlyName>MyChronos</FriendlyName><DeviceIndex>1</DeviceIndex><SerialNumber>CHR-04301-1186</SerialNumber><EBNVersion>3.0.3.80</EBNVersion><FirmwareVersion>1.33</FirmwareVersion><APIVersion>1.33</APIVersion><USBHostControllerVersion>2.0</USBHostControllerVersion><USBConnectionRoute>USB#ROOT_HUB20#4&9bd2e8a&0#{f18a0e88-c30c-11d0-8815-00a0c906bed8} + USB#VID_8087&PID_0024#5&3026c139&0&1#{f18a0e88-c30c-11d0-8815-00a0c906bed8}(1) + VID_2266&PID_0007(7)</USBConnectionRoute></ChronosDeviceInfo>;"<?xml version=""1.0""?>\n<Clock xmlns:dt=""urn:schemas-microsoft-com:datatypes""><Description dt:dt=""string"">E-Prime Primary Realtime Clock</Description><StartTime><Timestamp dt:dt=""int"">0</Timestamp><DateUtc dt:dt=""string"">2021-04-30T15:08:09Z</DateUtc></StartTime><FrequencyChanges><FrequencyChange><Frequency dt:dt=""r8"">2435595</Frequency><Timestamp dt:dt=""r8"">20911740906</Timestamp><Current dt:dt=""r8"">0</Current><DateUtc dt:dt=""string"">2021-04-30T15:08:09Z</DateUtc></FrequencyChange></FrequencyChanges></Clock>\n";EXP2.2_290421-1007-1;60.025;1.0.0.346;1;Chronos;-562658007;Full;3.0.3.80;3.0.3.80;04-30-2021;30/04/2021 15:08;17:08:09;3.0.3.82;2;Chronos;;2;1;2;TESTVV;Generalbloc;;;;pretest;Chronos;32;1;VV_290421/890.png;4;1;32;-10;blocVVstim;listVVTrial;;;;Chronos;0;;0;-1;326171;200;;0;0;1;1;Chronos;0;0;326371;300;1;907;327278;1;1;Chronos;0;0;326671;0;1;607;327278;;;;;;;;;;;;;;;;;;;
EXP2.2_290421;1007;1;Chronos;<ChronosDeviceInfo><FriendlyName>MyChronos</FriendlyName><DeviceIndex>1</DeviceIndex><SerialNumber>CHR-04301-1186</SerialNumber><EBNVersion>3.0.3.80</EBNVersion><FirmwareVersion>1.33</FirmwareVersion><APIVersion>1.33</APIVersion><USBHostControllerVersion>2.0</USBHostControllerVersion><USBConnectionRoute>USB#ROOT_HUB20#4&9bd2e8a&0#{f18a0e88-c30c-11d0-8815-00a0c906bed8} + USB#VID_8087&PID_0024#5&3026c139&0&1#{f18a0e88-c30c-11d0-8815-00a0c906bed8}(1) + VID_2266&PID_0007(7)</USBConnectionRoute></ChronosDeviceInfo>;"<?xml version=""1.0""?>\n<Clock xmlns:dt=""urn:schemas-microsoft-com:datatypes""><Description dt:dt=""string"">E-Prime Primary Realtime Clock</Description><StartTime><Timestamp dt:dt=""int"">0</Timestamp><DateUtc dt:dt=""string"">2021-04-30T15:08:09Z</DateUtc></StartTime><FrequencyChanges><FrequencyChange><Frequency dt:dt=""r8"">2435595</Frequency><Timestamp dt:dt=""r8"">20911740906</Timestamp><Current dt:dt=""r8"">0</Current><DateUtc dt:dt=""string"">2021-04-30T15:08:09Z</DateUtc></FrequencyChange></FrequencyChanges></Clock>\n";EXP2.2_290421-1007-1;60.025;1.0.0.346;1;Chronos;-562658007;Full;3.0.3.80;3.0.3.80;04-30-2021;30/04/2021 15:08;17:08:09;3.0.3.82;2;Chronos;;2;1;2;TESTVV;Generalbloc;;;;pretest;Chronos;33;5;VV_290421/910.png;8;1;33;10;blocVVstim;listVVTrial;;;;Chronos;0;;1;-1;328803;200;;0;0;1;5;Chronos;1;0;329003;300;5;689;329692;1;5;Chronos;0;0;329303;0;5;389;329692;;;;;;;;;;;;;;;;;;;
EXP2.2_290421;1007;1;Chronos;<ChronosDeviceInfo><FriendlyName>MyChronos</FriendlyName><DeviceIndex>1</DeviceIndex><SerialNumber>CHR-04301-1186</SerialNumber><EBNVersion>3.0.3.80</EBNVersion><FirmwareVersion>1.33</FirmwareVersion><APIVersion>1.33</APIVersion><USBHostControllerVersion>2.0</USBHostControllerVersion><USBConnectionRoute>USB#ROOT_HUB20#4&9bd2e8a&0#{f18a0e88-c30c-11d0-8815-00a0c906bed8} + USB#VID_8087&PID_0024#5&3026c139&0&1#{f18a0e88-c30c-11d0-8815-00a0c906bed8}(1) + VID_2266&PID_0007(7)</USBConnectionRoute></ChronosDeviceInfo>;"<?xml version=""1.0""?>\n<Clock xmlns:dt=""urn:schemas-microsoft-com:datatypes""><Description dt:dt=""string"">E-Prime Primary Realtime Clock</Description><StartTime><Timestamp dt:dt=""int"">0</Timestamp><DateUtc dt:dt=""string"">2021-04-30T15:08:09Z</DateUtc></StartTime><FrequencyChanges><FrequencyChange><Frequency dt:dt=""r8"">2435595</Frequency><Timestamp dt:dt=""r8"">20911740906</Timestamp><Current dt:dt=""r8"">0</Current><DateUtc dt:dt=""string"">2021-04-30T15:08:09Z</DateUtc></FrequencyChange></FrequencyChanges></Clock>\n";EXP2.2_290421-1007-1;60.025;1.0.0.346;1;Chronos;-562658007;Full;3.0.3.80;3.0.3.80;04-30-2021;30/04/2021 15:08;17:08:09;3.0.3.82;2;Chronos;;2;1;2;TESTVV;Generalbloc;;;;pretest;Chronos;34;5;VV_290421/910.png;8;1;34;10;blocVVstim;listVVTrial;;;;Chronos;0;;0;-1;331219;200;;0;0;1;5;Chronos;0;0;331419;300;5;547;331966;1;5;Chronos;0;0;331719;0;5;247;331966;;;;;;;;;;;;;;;;;;;
EXP2.2_290421;1007;1;Chronos;<ChronosDeviceInfo><FriendlyName>MyChronos</FriendlyName><DeviceIndex>1</DeviceIndex><SerialNumber>CHR-04301-1186</SerialNumber><EBNVersion>3.0.3.80</EBNVersion><FirmwareVersion>1.33</FirmwareVersion><APIVersion>1.33</APIVersion><USBHostControllerVersion>2.0</USBHostControllerVersion><USBConnectionRoute>USB#ROOT_HUB20#4&9bd2e8a&0#{f18a0e88-c30c-11d0-8815-00a0c906bed8} + USB#VID_8087&PID_0024#5&3026c139&0&1#{f18a0e88-c30c-11d0-8815-00a0c906bed8}(1) + VID_2266&PID_0007(7)</USBConnectionRoute></ChronosDeviceInfo>;"<?xml version=""1.0""?>\n<Clock xmlns:dt=""urn:schemas-microsoft-com:datatypes""><Description dt:dt=""string"">E-Prime Primary Realtime Clock</Description><StartTime><Timestamp dt:dt=""int"">0</Timestamp><DateUtc dt:dt=""string"">2021-04-30T15:08:09Z</DateUtc></StartTime><FrequencyChanges><FrequencyChange><Frequency dt:dt=""r8"">2435595</Frequency><Timestamp dt:dt=""r8"">20911740906</Timestamp><Current dt:dt=""r8"">0</Current><DateUtc dt:dt=""string"">2021-04-30T15:08:09Z</DateUtc></FrequencyChange></FrequencyChanges></Clock>\n";EXP2.2_290421-1007-1;60.025;1.0.0.346;1;Chronos;-562658007;Full;3.0.3.80;3.0.3.80;04-30-2021;30/04/2021 15:08;17:08:09;3.0.3.82;2;Chronos;;2;1;2;TESTVV;Generalbloc;;;;pretest;Chronos;35;15;VV_290421/900.png;6;1;35;0;blocVVstim;listVVTrial;;;;Chronos;0;;0;-1;333485;200;;0;0;0;15;Chronos;0;0;333685;300;1;1444;335129;0;15;Chronos;0;0;333985;0;1;1144;335129;;;;;;;;;;;;;;;;;;;
EXP2.2_290421;1007;1;Chronos;<ChronosDeviceInfo><FriendlyName>MyChronos</FriendlyName><DeviceIndex>1</DeviceIndex><SerialNumber>CHR-04301-1186</SerialNumber><EBNVersion>3.0.3.80</EBNVersion><FirmwareVersion>1.33</FirmwareVersion><APIVersion>1.33</APIVersion><USBHostControllerVersion>2.0</USBHostControllerVersion><USBConnectionRoute>USB#ROOT_HUB20#4&9bd2e8a&0#{f18a0e88-c30c-11d0-8815-00a0c906bed8} + USB#VID_8087&PID_0024#5&3026c139&0&1#{f18a0e88-c30c-11d0-8815-00a0c906bed8}(1) + VID_2266&PID_0007(7)</USBConnectionRoute></ChronosDeviceInfo>;"<?xml version=""1.0""?>\n<Clock xmlns:dt=""urn:schemas-microsoft-com:datatypes""><Description dt:dt=""string"">E-Prime Primary Realtime Clock</Description><StartTime><Timestamp dt:dt=""int"">0</Timestamp><DateUtc dt:dt=""string"">2021-04-30T15:08:09Z</DateUtc></StartTime><FrequencyChanges><FrequencyChange><Frequency dt:dt=""r8"">2435595</Frequency><Timestamp dt:dt=""r8"">20911740906</Timestamp><Current dt:dt=""r8"">0</Current><DateUtc dt:dt=""string"">2021-04-30T15:08:09Z</DateUtc></FrequencyChange></FrequencyChanges></Clock>\n";EXP2.2_290421-1007-1;60.025;1.0.0.346;1;Chronos;-562658007;Full;3.0.3.80;3.0.3.80;04-30-2021;30/04/2021 15:08;17:08:09;3.0.3.82;2;Chronos;;2;1;2;TESTVV;Generalbloc;;;;pretest;Chronos;36;1;VV_290421/895.png;5;1;36;-5;blocVVstim;listVVTrial;;;;Chronos;0;;1;-1;336650;200;;0;0;1;1;Chronos;0;0;336850;300;1;1387;338237;1;1;Chronos;0;0;337150;0;1;1087;338237;;;;;;;;;;;;;;;;;;;
EXP2.2_290421;1007;1;Chronos;<ChronosDeviceInfo><FriendlyName>MyChronos</FriendlyName><DeviceIndex>1</DeviceIndex><SerialNumber>CHR-04301-1186</SerialNumber><EBNVersion>3.0.3.80</EBNVersion><FirmwareVersion>1.33</FirmwareVersion><APIVersion>1.33</APIVersion><USBHostControllerVersion>2.0</USBHostControllerVersion><USBConnectionRoute>USB#ROOT_HUB20#4&9bd2e8a&0#{f18a0e88-c30c-11d0-8815-00a0c906bed8} + USB#VID_8087&PID_0024#5&3026c139&0&1#{f18a0e88-c30c-11d0-8815-00a0c906bed8}(1) + VID_2266&PID_0007(7)</USBConnectionRoute></ChronosDeviceInfo>;"<?xml version=""1.0""?>\n<Clock xmlns:dt=""urn:schemas-microsoft-com:datatypes""><Description dt:dt=""string"">E-Prime Primary Realtime Clock</Description><StartTime><Timestamp dt:dt=""int"">0</Timestamp><DateUtc dt:dt=""string"">2021-04-30T15:08:09Z</DateUtc></StartTime><FrequencyChanges><FrequencyChange><Frequency dt:dt=""r8"">2435595</Frequency><Timestamp dt:dt=""r8"">20911740906</Timestamp><Current dt:dt=""r8"">0</Current><DateUtc dt:dt=""string"">2021-04-30T15:08:09Z</DateUtc></FrequencyChange></FrequencyChanges></Clock>\n";EXP2.2_290421-1007-1;60.025;1.0.0.346;1;Chronos;-562658007;Full;3.0.3.80;3.0.3.80;04-30-2021;30/04/2021 15:08;17:08:09;3.0.3.82;2;Chronos;;2;1;2;TESTVV;Generalbloc;;;;pretest;Chronos;37;1;VV_290421/880.png;2;1;37;-20;blocVVstim;listVVTrial;;;;Chronos;0;;0;0;339766;200;;0;0;1;1;Chronos;0;0;339966;300;1;878;340844;1;1;Chronos;0;0;340266;0;1;578;340844;;;;;;;;;;;;;;;;;;;
EXP2.2_290421;1007;1;Chronos;<ChronosDeviceInfo><FriendlyName>MyChronos</FriendlyName><DeviceIndex>1</DeviceIndex><SerialNumber>CHR-04301-1186</SerialNumber><EBNVersion>3.0.3.80</EBNVersion><FirmwareVersion>1.33</FirmwareVersion><APIVersion>1.33</APIVersion><USBHostControllerVersion>2.0</USBHostControllerVersion><USBConnectionRoute>USB#ROOT_HUB20#4&9bd2e8a&0#{f18a0e88-c30c-11d0-8815-00a0c906bed8} + USB#VID_8087&PID_0024#5&3026c139&0&1#{f18a0e88-c30c-11d0-8815-00a0c906bed8}(1) + VID_2266&PID_0007(7)</USBConnectionRoute></ChronosDeviceInfo>;"<?xml version=""1.0""?>\n<Clock xmlns:dt=""urn:schemas-microsoft-com:datatypes""><Description dt:dt=""string"">E-Prime Primary Realtime Clock</Description><StartTime><Timestamp dt:dt=""int"">0</Timestamp><DateUtc dt:dt=""string"">2021-04-30T15:08:09Z</DateUtc></StartTime><FrequencyChanges><FrequencyChange><Frequency dt:dt=""r8"">2435595</Frequency><Timestamp dt:dt=""r8"">20911740906</Timestamp><Current dt:dt=""r8"">0</Current><DateUtc dt:dt=""string"">2021-04-30T15:08:09Z</DateUtc></FrequencyChange></FrequencyChanges></Clock>\n";EXP2.2_290421-1007-1;60.025;1.0.0.346;1;Chronos;-562658007;Full;3.0.3.80;3.0.3.80;04-30-2021;30/04/2021 15:08;17:08:09;3.0.3.82;2;Chronos;;2;1;2;TESTVV;Generalbloc;;;;pretest;Chronos;38;1;VV_290421/885.png;3;1;38;-15;blocVVstim;listVVTrial;;;;Chronos;0;;0;0;342365;200;;0;0;1;1;Chronos;0;0;342565;300;1;607;343172;1;1;Chronos;0;0;342865;0;1;307;343172;;;;;;;;;;;;;;;;;;;
EXP2.2_290421;1007;1;Chronos;<ChronosDeviceInfo><FriendlyName>MyChronos</FriendlyName><DeviceIndex>1</DeviceIndex><SerialNumber>CHR-04301-1186</SerialNumber><EBNVersion>3.0.3.80</EBNVersion><FirmwareVersion>1.33</FirmwareVersion><APIVersion>1.33</APIVersion><USBHostControllerVersion>2.0</USBHostControllerVersion><USBConnectionRoute>USB#ROOT_HUB20#4&9bd2e8a&0#{f18a0e88-c30c-11d0-8815-00a0c906bed8} + USB#VID_8087&PID_0024#5&3026c139&0&1#{f18a0e88-c30c-11d0-8815-00a0c906bed8}(1) + VID_2266&PID_0007(7)</USBConnectionRoute></ChronosDeviceInfo>;"<?xml version=""1.0""?>\n<Clock xmlns:dt=""urn:schemas-microsoft-com:datatypes""><Description dt:dt=""string"">E-Prime Primary Realtime Clock</Description><StartTime><Timestamp dt:dt=""int"">0</Timestamp><DateUtc dt:dt=""string"">2021-04-30T15:08:09Z</DateUtc></StartTime><FrequencyChanges><FrequencyChange><Frequency dt:dt=""r8"">2435595</Frequency><Timestamp dt:dt=""r8"">20911740906</Timestamp><Current dt:dt=""r8"">0</Current><DateUtc dt:dt=""string"">2021-04-30T15:08:09Z</DateUtc></FrequencyChange></FrequencyChanges></Clock>\n";EXP2.2_290421-1007-1;60.025;1.0.0.346;1;Chronos;-562658007;Full;3.0.3.80;3.0.3.80;04-30-2021;30/04/2021 15:08;17:08:09;3.0.3.82;2;Chronos;;2;1;2;TESTVV;Generalbloc;;;;pretest;Chronos;39;1;VV_290421/890.png;4;1;39;-10;blocVVstim;listVVTrial;;;;Chronos;0;;0;-1;344697;200;;0;0;1;1;Chronos;0;0;344897;300;1;1523;346420;1;1;Chronos;0;0;345197;0;1;1223;346420;;;;;;;;;;;;;;;;;;;
EXP2.2_290421;1007;1;Chronos;<ChronosDeviceInfo><FriendlyName>MyChronos</FriendlyName><DeviceIndex>1</DeviceIndex><SerialNumber>CHR-04301-1186</SerialNumber><EBNVersion>3.0.3.80</EBNVersion><FirmwareVersion>1.33</FirmwareVersion><APIVersion>1.33</APIVersion><USBHostControllerVersion>2.0</USBHostControllerVersion><USBConnectionRoute>USB#ROOT_HUB20#4&9bd2e8a&0#{f18a0e88-c30c-11d0-8815-00a0c906bed8} + USB#VID_8087&PID_0024#5&3026c139&0&1#{f18a0e88-c30c-11d0-8815-00a0c906bed8}(1) + VID_2266&PID_0007(7)</USBConnectionRoute></ChronosDeviceInfo>;"<?xml version=""1.0""?>\n<Clock xmlns:dt=""urn:schemas-microsoft-com:datatypes""><Description dt:dt=""string"">E-Prime Primary Realtime Clock</Description><StartTime><Timestamp dt:dt=""int"">0</Timestamp><DateUtc dt:dt=""string"">2021-04-30T15:08:09Z</DateUtc></StartTime><FrequencyChanges><FrequencyChange><Frequency dt:dt=""r8"">2435595</Frequency><Timestamp dt:dt=""r8"">20911740906</Timestamp><Current dt:dt=""r8"">0</Current><DateUtc dt:dt=""string"">2021-04-30T15:08:09Z</DateUtc></FrequencyChange></FrequencyChanges></Clock>\n";EXP2.2_290421-1007-1;60.025;1.0.0.346;1;Chronos;-562658007;Full;3.0.3.80;3.0.3.80;04-30-2021;30/04/2021 15:08;17:08:09;3.0.3.82;2;Chronos;;2;1;2;TESTVV;Generalbloc;;;;pretest;Chronos;40;5;VV_290421/925.png;11;1;40;25;blocVVstim;listVVTrial;;;;Chronos;0;;0;0;347946;200;;0;0;1;5;Chronos;0;0;348146;300;5;637;348783;1;5;Chronos;0;0;348446;0;5;337;348783;;;;;;;;;;;;;;;;;;;
EXP2.2_290421;1007;1;Chronos;<ChronosDeviceInfo><FriendlyName>MyChronos</FriendlyName><DeviceIndex>1</DeviceIndex><SerialNumber>CHR-04301-1186</SerialNumber><EBNVersion>3.0.3.80</EBNVersion><FirmwareVersion>1.33</FirmwareVersion><APIVersion>1.33</APIVersion><USBHostControllerVersion>2.0</USBHostControllerVersion><USBConnectionRoute>USB#ROOT_HUB20#4&9bd2e8a&0#{f18a0e88-c30c-11d0-8815-00a0c906bed8} + USB#VID_8087&PID_0024#5&3026c139&0&1#{f18a0e88-c30c-11d0-8815-00a0c906bed8}(1) + VID_2266&PID_0007(7)</USBConnectionRoute></ChronosDeviceInfo>;"<?xml version=""1.0""?>\n<Clock xmlns:dt=""urn:schemas-microsoft-com:datatypes""><Description dt:dt=""string"">E-Prime Primary Realtime Clock</Description><StartTime><Timestamp dt:dt=""int"">0</Timestamp><DateUtc dt:dt=""string"">2021-04-30T15:08:09Z</DateUtc></StartTime><FrequencyChanges><FrequencyChange><Frequency dt:dt=""r8"">2435595</Frequency><Timestamp dt:dt=""r8"">20911740906</Timestamp><Current dt:dt=""r8"">0</Current><DateUtc dt:dt=""string"">2021-04-30T15:08:09Z</DateUtc></FrequencyChange></FrequencyChanges></Clock>\n";EXP2.2_290421-1007-1;60.025;1.0.0.346;1;Chronos;-562658007;Full;3.0.3.80;3.0.3.80;04-30-2021;30/04/2021 15:08;17:08:09;3.0.3.82;2;Chronos;;2;1;2;TESTVV;Generalbloc;;;;pretest;Chronos;41;1;VV_290421/895.png;5;1;41;-5;blocVVstim;listVVTrial;;;;Chronos;0;;0;0;350312;200;;0;0;1;1;Chronos;0;0;350512;299;1;748;351260;1;1;Chronos;1;-1;350811;0;1;449;351260;;;;;;;;;;;;;;;;;;;
EXP2.2_290421;1007;1;Chronos;<ChronosDeviceInfo><FriendlyName>MyChronos</FriendlyName><DeviceIndex>1</DeviceIndex><SerialNumber>CHR-04301-1186</SerialNumber><EBNVersion>3.0.3.80</EBNVersion><FirmwareVersion>1.33</FirmwareVersion><APIVersion>1.33</APIVersion><USBHostControllerVersion>2.0</USBHostControllerVersion><USBConnectionRoute>USB#ROOT_HUB20#4&9bd2e8a&0#{f18a0e88-c30c-11d0-8815-00a0c906bed8} + USB#VID_8087&PID_0024#5&3026c139&0&1#{f18a0e88-c30c-11d0-8815-00a0c906bed8}(1) + VID_2266&PID_0007(7)</USBConnectionRoute></ChronosDeviceInfo>;"<?xml version=""1.0""?>\n<Clock xmlns:dt=""urn:schemas-microsoft-com:datatypes""><Description dt:dt=""string"">E-Prime Primary Realtime Clock</Description><StartTime><Timestamp dt:dt=""int"">0</Timestamp><DateUtc dt:dt=""string"">2021-04-30T15:08:09Z</DateUtc></StartTime><FrequencyChanges><FrequencyChange><Frequency dt:dt=""r8"">2435595</Frequency><Timestamp dt:dt=""r8"">20911740906</Timestamp><Current dt:dt=""r8"">0</Current><DateUtc dt:dt=""string"">2021-04-30T15:08:09Z</DateUtc></FrequencyChange></FrequencyChanges></Clock>\n";EXP2.2_290421-1007-1;60.025;1.0.0.346;1;Chronos;-562658007;Full;3.0.3.80;3.0.3.80;04-30-2021;30/04/2021 15:08;17:08:09;3.0.3.82;2;Chronos;;2;1;2;TESTVV;Generalbloc;;;;pretest;Chronos;42;5;VV_290421/915.png;9;1;42;15;blocVVstim;listVVTrial;;;;Chronos;0;;0;-1;352777;200;;0;0;1;5;Chronos;0;0;352977;300;5;584;353561;1;5;Chronos;0;0;353277;0;5;284;353561;;;;;;;;;;;;;;;;;;;
EXP2.2_290421;1007;1;Chronos;<ChronosDeviceInfo><FriendlyName>MyChronos</FriendlyName><DeviceIndex>1</DeviceIndex><SerialNumber>CHR-04301-1186</SerialNumber><EBNVersion>3.0.3.80</EBNVersion><FirmwareVersion>1.33</FirmwareVersion><APIVersion>1.33</APIVersion><USBHostControllerVersion>2.0</USBHostControllerVersion><USBConnectionRoute>USB#ROOT_HUB20#4&9bd2e8a&0#{f18a0e88-c30c-11d0-8815-00a0c906bed8} + USB#VID_8087&PID_0024#5&3026c139&0&1#{f18a0e88-c30c-11d0-8815-00a0c906bed8}(1) + VID_2266&PID_0007(7)</USBConnectionRoute></ChronosDeviceInfo>;"<?xml version=""1.0""?>\n<Clock xmlns:dt=""urn:schemas-microsoft-com:datatypes""><Description dt:dt=""string"">E-Prime Primary Realtime Clock</Description><StartTime><Timestamp dt:dt=""int"">0</Timestamp><DateUtc dt:dt=""string"">2021-04-30T15:08:09Z</DateUtc></StartTime><FrequencyChanges><FrequencyChange><Frequency dt:dt=""r8"">2435595</Frequency><Timestamp dt:dt=""r8"">20911740906</Timestamp><Current dt:dt=""r8"">0</Current><DateUtc dt:dt=""string"">2021-04-30T15:08:09Z</DateUtc></FrequencyChange></FrequencyChanges></Clock>\n";EXP2.2_290421-1007-1;60.025;1.0.0.346;1;Chronos;-562658007;Full;3.0.3.80;3.0.3.80;04-30-2021;30/04/2021 15:08;17:08:09;3.0.3.82;2;Chronos;;2;1;2;TESTVV;Generalbloc;;;;pretest;Chronos;43;5;VV_290421/920.png;10;1;43;20;blocVVstim;listVVTrial;;;;Chronos;0;;0;-1;355076;200;;0;0;1;5;Chronos;1;0;355276;300;5;758;356034;1;5;Chronos;0;0;355576;0;5;458;356034;;;;;;;;;;;;;;;;;;;
EXP2.2_290421;1007;1;Chronos;<ChronosDeviceInfo><FriendlyName>MyChronos</FriendlyName><DeviceIndex>1</DeviceIndex><SerialNumber>CHR-04301-1186</SerialNumber><EBNVersion>3.0.3.80</EBNVersion><FirmwareVersion>1.33</FirmwareVersion><APIVersion>1.33</APIVersion><USBHostControllerVersion>2.0</USBHostControllerVersion><USBConnectionRoute>USB#ROOT_HUB20#4&9bd2e8a&0#{f18a0e88-c30c-11d0-8815-00a0c906bed8} + USB#VID_8087&PID_0024#5&3026c139&0&1#{f18a0e88-c30c-11d0-8815-00a0c906bed8}(1) + VID_2266&PID_0007(7)</USBConnectionRoute></ChronosDeviceInfo>;"<?xml version=""1.0""?>\n<Clock xmlns:dt=""urn:schemas-microsoft-com:datatypes""><Description dt:dt=""string"">E-Prime Primary Realtime Clock</Description><StartTime><Timestamp dt:dt=""int"">0</Timestamp><DateUtc dt:dt=""string"">2021-04-30T15:08:09Z</DateUtc></StartTime><FrequencyChanges><FrequencyChange><Frequency dt:dt=""r8"">2435595</Frequency><Timestamp dt:dt=""r8"">20911740906</Timestamp><Current dt:dt=""r8"">0</Current><DateUtc dt:dt=""string"">2021-04-30T15:08:09Z</DateUtc></FrequencyChange></FrequencyChanges></Clock>\n";EXP2.2_290421-1007-1;60.025;1.0.0.346;1;Chronos;-562658007;Full;3.0.3.80;3.0.3.80;04-30-2021;30/04/2021 15:08;17:08:09;3.0.3.82;2;Chronos;;2;1;2;TESTVV;Generalbloc;;;;pretest;Chronos;44;5;VV_290421/910.png;8;1;44;10;blocVVstim;listVVTrial;;;;Chronos;0;;0;0;357559;200;;0;0;1;5;Chronos;0;0;357759;300;5;581;358340;1;5;Chronos;0;0;358059;0;5;281;358340;;;;;;;;;;;;;;;;;;;
EXP2.2_290421;1007;1;Chronos;<ChronosDeviceInfo><FriendlyName>MyChronos</FriendlyName><DeviceIndex>1</DeviceIndex><SerialNumber>CHR-04301-1186</SerialNumber><EBNVersion>3.0.3.80</EBNVersion><FirmwareVersion>1.33</FirmwareVersion><APIVersion>1.33</APIVersion><USBHostControllerVersion>2.0</USBHostControllerVersion><USBConnectionRoute>USB#ROOT_HUB20#4&9bd2e8a&0#{f18a0e88-c30c-11d0-8815-00a0c906bed8} + USB#VID_8087&PID_0024#5&3026c139&0&1#{f18a0e88-c30c-11d0-8815-00a0c906bed8}(1) + VID_2266&PID_0007(7)</USBConnectionRoute></ChronosDeviceInfo>;"<?xml version=""1.0""?>\n<Clock xmlns:dt=""urn:schemas-microsoft-com:datatypes""><Description dt:dt=""string"">E-Prime Primary Realtime Clock</Description><StartTime><Timestamp dt:dt=""int"">0</Timestamp><DateUtc dt:dt=""string"">2021-04-30T15:08:09Z</DateUtc></StartTime><FrequencyChanges><FrequencyChange><Frequency dt:dt=""r8"">2435595</Frequency><Timestamp dt:dt=""r8"">20911740906</Timestamp><Current dt:dt=""r8"">0</Current><DateUtc dt:dt=""string"">2021-04-30T15:08:09Z</DateUtc></FrequencyChange></FrequencyChanges></Clock>\n";EXP2.2_290421-1007-1;60.025;1.0.0.346;1;Chronos;-562658007;Full;3.0.3.80;3.0.3.80;04-30-2021;30/04/2021 15:08;17:08:09;3.0.3.82;2;Chronos;;2;1;2;TESTVV;Generalbloc;;;;pretest;Chronos;45;15;VV_290421/900.png;6;1;45;0;blocVVstim;listVVTrial;;;;Chronos;0;;0;0;359858;200;;0;0;0;15;Chronos;0;0;360058;300;5;1367;361425;0;15;Chronos;0;0;360358;0;5;1067;361425;;;;;;;;;;;;;;;;;;;
EXP2.2_290421;1007;1;Chronos;<ChronosDeviceInfo><FriendlyName>MyChronos</FriendlyName><DeviceIndex>1</DeviceIndex><SerialNumber>CHR-04301-1186</SerialNumber><EBNVersion>3.0.3.80</EBNVersion><FirmwareVersion>1.33</FirmwareVersion><APIVersion>1.33</APIVersion><USBHostControllerVersion>2.0</USBHostControllerVersion><USBConnectionRoute>USB#ROOT_HUB20#4&9bd2e8a&0#{f18a0e88-c30c-11d0-8815-00a0c906bed8} + USB#VID_8087&PID_0024#5&3026c139&0&1#{f18a0e88-c30c-11d0-8815-00a0c906bed8}(1) + VID_2266&PID_0007(7)</USBConnectionRoute></ChronosDeviceInfo>;"<?xml version=""1.0""?>\n<Clock xmlns:dt=""urn:schemas-microsoft-com:datatypes""><Description dt:dt=""string"">E-Prime Primary Realtime Clock</Description><StartTime><Timestamp dt:dt=""int"">0</Timestamp><DateUtc dt:dt=""string"">2021-04-30T15:08:09Z</DateUtc></StartTime><FrequencyChanges><FrequencyChange><Frequency dt:dt=""r8"">2435595</Frequency><Timestamp dt:dt=""r8"">20911740906</Timestamp><Current dt:dt=""r8"">0</Current><DateUtc dt:dt=""string"">2021-04-30T15:08:09Z</DateUtc></FrequencyChange></FrequencyChanges></Clock>\n";EXP2.2_290421-1007-1;60.025;1.0.0.346;1;Chronos;-562658007;Full;3.0.3.80;3.0.3.80;04-30-2021;30/04/2021 15:08;17:08:09;3.0.3.82;2;Chronos;;2;1;2;TESTVV;Generalbloc;;;;pretest;Chronos;46;1;VV_290421/890.png;4;1;46;-10;blocVVstim;listVVTrial;;;;Chronos;0;;0;-1;362940;200;;0;0;1;1;Chronos;0;0;363140;300;1;749;363889;1;1;Chronos;0;0;363440;0;1;449;363889;;;;;;;;;;;;;;;;;;;
EXP2.2_290421;1007;1;Chronos;<ChronosDeviceInfo><FriendlyName>MyChronos</FriendlyName><DeviceIndex>1</DeviceIndex><SerialNumber>CHR-04301-1186</SerialNumber><EBNVersion>3.0.3.80</EBNVersion><FirmwareVersion>1.33</FirmwareVersion><APIVersion>1.33</APIVersion><USBHostControllerVersion>2.0</USBHostControllerVersion><USBConnectionRoute>USB#ROOT_HUB20#4&9bd2e8a&0#{f18a0e88-c30c-11d0-8815-00a0c906bed8} + USB#VID_8087&PID_0024#5&3026c139&0&1#{f18a0e88-c30c-11d0-8815-00a0c906bed8}(1) + VID_2266&PID_0007(7)</USBConnectionRoute></ChronosDeviceInfo>;"<?xml version=""1.0""?>\n<Clock xmlns:dt=""urn:schemas-microsoft-com:datatypes""><Description dt:dt=""string"">E-Prime Primary Realtime Clock</Description><StartTime><Timestamp dt:dt=""int"">0</Timestamp><DateUtc dt:dt=""string"">2021-04-30T15:08:09Z</DateUtc></StartTime><FrequencyChanges><FrequencyChange><Frequency dt:dt=""r8"">2435595</Frequency><Timestamp dt:dt=""r8"">20911740906</Timestamp><Current dt:dt=""r8"">0</Current><DateUtc dt:dt=""string"">2021-04-30T15:08:09Z</DateUtc></FrequencyChange></FrequencyChanges></Clock>\n";EXP2.2_290421-1007-1;60.025;1.0.0.346;1;Chronos;-562658007;Full;3.0.3.80;3.0.3.80;04-30-2021;30/04/2021 15:08;17:08:09;3.0.3.82;2;Chronos;;2;1;2;TESTVV;Generalbloc;;;;pretest;Chronos;47;5;VV_290421/920.png;10;1;47;20;blocVVstim;listVVTrial;;;;Chronos;0;;0;0;365406;200;;0;0;1;5;Chronos;0;0;365606;299;5;632;366238;1;5;Chronos;1;-1;365905;0;5;333;366238;;;;;;;;;;;;;;;;;;;
EXP2.2_290421;1007;1;Chronos;<ChronosDeviceInfo><FriendlyName>MyChronos</FriendlyName><DeviceIndex>1</DeviceIndex><SerialNumber>CHR-04301-1186</SerialNumber><EBNVersion>3.0.3.80</EBNVersion><FirmwareVersion>1.33</FirmwareVersion><APIVersion>1.33</APIVersion><USBHostControllerVersion>2.0</USBHostControllerVersion><USBConnectionRoute>USB#ROOT_HUB20#4&9bd2e8a&0#{f18a0e88-c30c-11d0-8815-00a0c906bed8} + USB#VID_8087&PID_0024#5&3026c139&0&1#{f18a0e88-c30c-11d0-8815-00a0c906bed8}(1) + VID_2266&PID_0007(7)</USBConnectionRoute></ChronosDeviceInfo>;"<?xml version=""1.0""?>\n<Clock xmlns:dt=""urn:schemas-microsoft-com:datatypes""><Description dt:dt=""string"">E-Prime Primary Realtime Clock</Description><StartTime><Timestamp dt:dt=""int"">0</Timestamp><DateUtc dt:dt=""string"">2021-04-30T15:08:09Z</DateUtc></StartTime><FrequencyChanges><FrequencyChange><Frequency dt:dt=""r8"">2435595</Frequency><Timestamp dt:dt=""r8"">20911740906</Timestamp><Current dt:dt=""r8"">0</Current><DateUtc dt:dt=""string"">2021-04-30T15:08:09Z</DateUtc></FrequencyChange></FrequencyChanges></Clock>\n";EXP2.2_290421-1007-1;60.025;1.0.0.346;1;Chronos;-562658007;Full;3.0.3.80;3.0.3.80;04-30-2021;30/04/2021 15:08;17:08:09;3.0.3.82;2;Chronos;;2;1;2;TESTVV;Generalbloc;;;;pretest;Chronos;48;5;VV_290421/905.png;7;1;48;5;blocVVstim;listVVTrial;;;;Chronos;0;;0;0;367755;200;;0;0;1;5;Chronos;0;0;367955;299;5;1030;368985;1;5;Chronos;1;-1;368254;0;5;731;368985;;;;;;;;;;;;;;;;;;;
EXP2.2_290421;1007;1;Chronos;<ChronosDeviceInfo><FriendlyName>MyChronos</FriendlyName><DeviceIndex>1</DeviceIndex><SerialNumber>CHR-04301-1186</SerialNumber><EBNVersion>3.0.3.80</EBNVersion><FirmwareVersion>1.33</FirmwareVersion><APIVersion>1.33</APIVersion><USBHostControllerVersion>2.0</USBHostControllerVersion><USBConnectionRoute>USB#ROOT_HUB20#4&9bd2e8a&0#{f18a0e88-c30c-11d0-8815-00a0c906bed8} + USB#VID_8087&PID_0024#5&3026c139&0&1#{f18a0e88-c30c-11d0-8815-00a0c906bed8}(1) + VID_2266&PID_0007(7)</USBConnectionRoute></ChronosDeviceInfo>;"<?xml version=""1.0""?>\n<Clock xmlns:dt=""urn:schemas-microsoft-com:datatypes""><Description dt:dt=""string"">E-Prime Primary Realtime Clock</Description><StartTime><Timestamp dt:dt=""int"">0</Timestamp><DateUtc dt:dt=""string"">2021-04-30T15:08:09Z</DateUtc></StartTime><FrequencyChanges><FrequencyChange><Frequency dt:dt=""r8"">2435595</Frequency><Timestamp dt:dt=""r8"">20911740906</Timestamp><Current dt:dt=""r8"">0</Current><DateUtc dt:dt=""string"">2021-04-30T15:08:09Z</DateUtc></FrequencyChange></FrequencyChanges></Clock>\n";EXP2.2_290421-1007-1;60.025;1.0.0.346;1;Chronos;-562658007;Full;3.0.3.80;3.0.3.80;04-30-2021;30/04/2021 15:08;17:08:09;3.0.3.82;2;Chronos;;2;1;2;TESTVV;Generalbloc;;;;pretest;Chronos;49;1;VV_290421/895.png;5;1;49;-5;blocVVstim;listVVTrial;;;;Chronos;0;;0;0;370504;199;;0;0;1;1;Chronos;1;-1;370703;300;1;1145;371848;1;1;Chronos;1;0;371003;0;1;845;371848;;;;;;;;;;;;;;;;;;;
EXP2.2_290421;1007;1;Chronos;<ChronosDeviceInfo><FriendlyName>MyChronos</FriendlyName><DeviceIndex>1</DeviceIndex><SerialNumber>CHR-04301-1186</SerialNumber><EBNVersion>3.0.3.80</EBNVersion><FirmwareVersion>1.33</FirmwareVersion><APIVersion>1.33</APIVersion><USBHostControllerVersion>2.0</USBHostControllerVersion><USBConnectionRoute>USB#ROOT_HUB20#4&9bd2e8a&0#{f18a0e88-c30c-11d0-8815-00a0c906bed8} + USB#VID_8087&PID_0024#5&3026c139&0&1#{f18a0e88-c30c-11d0-8815-00a0c906bed8}(1) + VID_2266&PID_0007(7)</USBConnectionRoute></ChronosDeviceInfo>;"<?xml version=""1.0""?>\n<Clock xmlns:dt=""urn:schemas-microsoft-com:datatypes""><Description dt:dt=""string"">E-Prime Primary Realtime Clock</Description><StartTime><Timestamp dt:dt=""int"">0</Timestamp><DateUtc dt:dt=""string"">2021-04-30T15:08:09Z</DateUtc></StartTime><FrequencyChanges><FrequencyChange><Frequency dt:dt=""r8"">2435595</Frequency><Timestamp dt:dt=""r8"">20911740906</Timestamp><Current dt:dt=""r8"">0</Current><DateUtc dt:dt=""string"">2021-04-30T15:08:09Z</DateUtc></FrequencyChange></FrequencyChanges></Clock>\n";EXP2.2_290421-1007-1;60.025;1.0.0.346;1;Chronos;-562658007;Full;3.0.3.80;3.0.3.80;04-30-2021;30/04/2021 15:08;17:08:09;3.0.3.82;2;Chronos;;2;1;2;TESTVV;Generalbloc;;;;pretest;Chronos;50;1;VV_290421/885.png;3;1;50;-15;blocVVstim;listVVTrial;;;;Chronos;0;;0;-1;373369;200;;0;0;1;1;Chronos;0;0;373569;300;1;669;374238;1;1;Chronos;0;0;373869;0;1;369;374238;;;;;;;;;;;;;;;;;;;
EXP2.2_290421;1007;1;Chronos;<ChronosDeviceInfo><FriendlyName>MyChronos</FriendlyName><DeviceIndex>1</DeviceIndex><SerialNumber>CHR-04301-1186</SerialNumber><EBNVersion>3.0.3.80</EBNVersion><FirmwareVersion>1.33</FirmwareVersion><APIVersion>1.33</APIVersion><USBHostControllerVersion>2.0</USBHostControllerVersion><USBConnectionRoute>USB#ROOT_HUB20#4&9bd2e8a&0#{f18a0e88-c30c-11d0-8815-00a0c906bed8} + USB#VID_8087&PID_0024#5&3026c139&0&1#{f18a0e88-c30c-11d0-8815-00a0c906bed8}(1) + VID_2266&PID_0007(7)</USBConnectionRoute></ChronosDeviceInfo>;"<?xml version=""1.0""?>\n<Clock xmlns:dt=""urn:schemas-microsoft-com:datatypes""><Description dt:dt=""string"">E-Prime Primary Realtime Clock</Description><StartTime><Timestamp dt:dt=""int"">0</Timestamp><DateUtc dt:dt=""string"">2021-04-30T15:08:09Z</DateUtc></StartTime><FrequencyChanges><FrequencyChange><Frequency dt:dt=""r8"">2435595</Frequency><Timestamp dt:dt=""r8"">20911740906</Timestamp><Current dt:dt=""r8"">0</Current><DateUtc dt:dt=""string"">2021-04-30T15:08:09Z</DateUtc></FrequencyChange></FrequencyChanges></Clock>\n";EXP2.2_290421-1007-1;60.025;1.0.0.346;1;Chronos;-562658007;Full;3.0.3.80;3.0.3.80;04-30-2021;30/04/2021 15:08;17:08:09;3.0.3.82;2;Chronos;;2;1;2;TESTVV;Generalbloc;;;;pretest;Chronos;51;1;VV_290421/885.png;3;1;51;-15;blocVVstim;listVVTrial;;;;Chronos;0;;1;-1;375751;200;;0;0;1;1;Chronos;1;0;375951;300;1;796;376747;1;1;Chronos;0;0;376251;0;1;496;376747;;;;;;;;;;;;;;;;;;;
EXP2.2_290421;1007;1;Chronos;<ChronosDeviceInfo><FriendlyName>MyChronos</FriendlyName><DeviceIndex>1</DeviceIndex><SerialNumber>CHR-04301-1186</SerialNumber><EBNVersion>3.0.3.80</EBNVersion><FirmwareVersion>1.33</FirmwareVersion><APIVersion>1.33</APIVersion><USBHostControllerVersion>2.0</USBHostControllerVersion><USBConnectionRoute>USB#ROOT_HUB20#4&9bd2e8a&0#{f18a0e88-c30c-11d0-8815-00a0c906bed8} + USB#VID_8087&PID_0024#5&3026c139&0&1#{f18a0e88-c30c-11d0-8815-00a0c906bed8}(1) + VID_2266&PID_0007(7)</USBConnectionRoute></ChronosDeviceInfo>;"<?xml version=""1.0""?>\n<Clock xmlns:dt=""urn:schemas-microsoft-com:datatypes""><Description dt:dt=""string"">E-Prime Primary Realtime Clock</Description><StartTime><Timestamp dt:dt=""int"">0</Timestamp><DateUtc dt:dt=""string"">2021-04-30T15:08:09Z</DateUtc></StartTime><FrequencyChanges><FrequencyChange><Frequency dt:dt=""r8"">2435595</Frequency><Timestamp dt:dt=""r8"">20911740906</Timestamp><Current dt:dt=""r8"">0</Current><DateUtc dt:dt=""string"">2021-04-30T15:08:09Z</DateUtc></FrequencyChange></FrequencyChanges></Clock>\n";EXP2.2_290421-1007-1;60.025;1.0.0.346;1;Chronos;-562658007;Full;3.0.3.80;3.0.3.80;04-30-2021;30/04/2021 15:08;17:08:09;3.0.3.82;2;Chronos;;2;1;2;TESTVV;Generalbloc;;;;pretest;Chronos;52;15;VV_290421/900.png;6;1;52;0;blocVVstim;listVVTrial;;;;Chronos;0;;0;-1;378267;200;;0;0;0;15;Chronos;0;0;378467;300;1;863;379330;0;15;Chronos;0;0;378767;0;1;563;379330;;;;;;;;;;;;;;;;;;;
EXP2.2_290421;1007;1;Chronos;<ChronosDeviceInfo><FriendlyName>MyChronos</FriendlyName><DeviceIndex>1</DeviceIndex><SerialNumber>CHR-04301-1186</SerialNumber><EBNVersion>3.0.3.80</EBNVersion><FirmwareVersion>1.33</FirmwareVersion><APIVersion>1.33</APIVersion><USBHostControllerVersion>2.0</USBHostControllerVersion><USBConnectionRoute>USB#ROOT_HUB20#4&9bd2e8a&0#{f18a0e88-c30c-11d0-8815-00a0c906bed8} + USB#VID_8087&PID_0024#5&3026c139&0&1#{f18a0e88-c30c-11d0-8815-00a0c906bed8}(1) + VID_2266&PID_0007(7)</USBConnectionRoute></ChronosDeviceInfo>;"<?xml version=""1.0""?>\n<Clock xmlns:dt=""urn:schemas-microsoft-com:datatypes""><Description dt:dt=""string"">E-Prime Primary Realtime Clock</Description><StartTime><Timestamp dt:dt=""int"">0</Timestamp><DateUtc dt:dt=""string"">2021-04-30T15:08:09Z</DateUtc></StartTime><FrequencyChanges><FrequencyChange><Frequency dt:dt=""r8"">2435595</Frequency><Timestamp dt:dt=""r8"">20911740906</Timestamp><Current dt:dt=""r8"">0</Current><DateUtc dt:dt=""string"">2021-04-30T15:08:09Z</DateUtc></FrequencyChange></FrequencyChanges></Clock>\n";EXP2.2_290421-1007-1;60.025;1.0.0.346;1;Chronos;-562658007;Full;3.0.3.80;3.0.3.80;04-30-2021;30/04/2021 15:08;17:08:09;3.0.3.82;2;Chronos;;2;1;2;TESTVV;Generalbloc;;;;pretest;Chronos;53;5;VV_290421/925.png;11;1;53;25;blocVVstim;listVVTrial;;;;Chronos;0;;1;-1;380849;200;;0;0;1;5;Chronos;1;0;381049;300;5;799;381848;1;5;Chronos;0;0;381349;0;5;499;381848;;;;;;;;;;;;;;;;;;;
EXP2.2_290421;1007;1;Chronos;<ChronosDeviceInfo><FriendlyName>MyChronos</FriendlyName><DeviceIndex>1</DeviceIndex><SerialNumber>CHR-04301-1186</SerialNumber><EBNVersion>3.0.3.80</EBNVersion><FirmwareVersion>1.33</FirmwareVersion><APIVersion>1.33</APIVersion><USBHostControllerVersion>2.0</USBHostControllerVersion><USBConnectionRoute>USB#ROOT_HUB20#4&9bd2e8a&0#{f18a0e88-c30c-11d0-8815-00a0c906bed8} + USB#VID_8087&PID_0024#5&3026c139&0&1#{f18a0e88-c30c-11d0-8815-00a0c906bed8}(1) + VID_2266&PID_0007(7)</USBConnectionRoute></ChronosDeviceInfo>;"<?xml version=""1.0""?>\n<Clock xmlns:dt=""urn:schemas-microsoft-com:datatypes""><Description dt:dt=""string"">E-Prime Primary Realtime Clock</Description><StartTime><Timestamp dt:dt=""int"">0</Timestamp><DateUtc dt:dt=""string"">2021-04-30T15:08:09Z</DateUtc></StartTime><FrequencyChanges><FrequencyChange><Frequency dt:dt=""r8"">2435595</Frequency><Timestamp dt:dt=""r8"">20911740906</Timestamp><Current dt:dt=""r8"">0</Current><DateUtc dt:dt=""string"">2021-04-30T15:08:09Z</DateUtc></FrequencyChange></FrequencyChanges></Clock>\n";EXP2.2_290421-1007-1;60.025;1.0.0.346;1;Chronos;-562658007;Full;3.0.3.80;3.0.3.80;04-30-2021;30/04/2021 15:08;17:08:09;3.0.3.82;2;Chronos;;2;1;2;TESTVV;Generalbloc;;;;pretest;Chronos;54;15;VV_290421/900.png;6;1;54;0;blocVVstim;listVVTrial;;;;Chronos;0;;0;-1;383365;200;;0;0;0;15;Chronos;0;0;383565;300;1;950;384515;0;15;Chronos;0;0;383865;0;1;650;384515;;;;;;;;;;;;;;;;;;;
EXP2.2_290421;1007;1;Chronos;<ChronosDeviceInfo><FriendlyName>MyChronos</FriendlyName><DeviceIndex>1</DeviceIndex><SerialNumber>CHR-04301-1186</SerialNumber><EBNVersion>3.0.3.80</EBNVersion><FirmwareVersion>1.33</FirmwareVersion><APIVersion>1.33</APIVersion><USBHostControllerVersion>2.0</USBHostControllerVersion><USBConnectionRoute>USB#ROOT_HUB20#4&9bd2e8a&0#{f18a0e88-c30c-11d0-8815-00a0c906bed8} + USB#VID_8087&PID_0024#5&3026c139&0&1#{f18a0e88-c30c-11d0-8815-00a0c906bed8}(1) + VID_2266&PID_0007(7)</USBConnectionRoute></ChronosDeviceInfo>;"<?xml version=""1.0""?>\n<Clock xmlns:dt=""urn:schemas-microsoft-com:datatypes""><Description dt:dt=""string"">E-Prime Primary Realtime Clock</Description><StartTime><Timestamp dt:dt=""int"">0</Timestamp><DateUtc dt:dt=""string"">2021-04-30T15:08:09Z</DateUtc></StartTime><FrequencyChanges><FrequencyChange><Frequency dt:dt=""r8"">2435595</Frequency><Timestamp dt:dt=""r8"">20911740906</Timestamp><Current dt:dt=""r8"">0</Current><DateUtc dt:dt=""string"">2021-04-30T15:08:09Z</DateUtc></FrequencyChange></FrequencyChanges></Clock>\n";EXP2.2_290421-1007-1;60.025;1.0.0.346;1;Chronos;-562658007;Full;3.0.3.80;3.0.3.80;04-30-2021;30/04/2021 15:08;17:08:09;3.0.3.82;2;Chronos;;2;1;2;TESTVV;Generalbloc;;;;pretest;Chronos;55;1;VV_290421/880.png;2;1;55;-20;blocVVstim;listVVTrial;;;;Chronos;0;;0;0;386031;200;;0;0;1;1;Chronos;0;0;386231;300;1;641;386872;1;1;Chronos;0;0;386531;0;1;341;386872;;;;;;;;;;;;;;;;;;;
EXP2.2_290421;1007;1;Chronos;<ChronosDeviceInfo><FriendlyName>MyChronos</FriendlyName><DeviceIndex>1</DeviceIndex><SerialNumber>CHR-04301-1186</SerialNumber><EBNVersion>3.0.3.80</EBNVersion><FirmwareVersion>1.33</FirmwareVersion><APIVersion>1.33</APIVersion><USBHostControllerVersion>2.0</USBHostControllerVersion><USBConnectionRoute>USB#ROOT_HUB20#4&9bd2e8a&0#{f18a0e88-c30c-11d0-8815-00a0c906bed8} + USB#VID_8087&PID_0024#5&3026c139&0&1#{f18a0e88-c30c-11d0-8815-00a0c906bed8}(1) + VID_2266&PID_0007(7)</USBConnectionRoute></ChronosDeviceInfo>;"<?xml version=""1.0""?>\n<Clock xmlns:dt=""urn:schemas-microsoft-com:datatypes""><Description dt:dt=""string"">E-Prime Primary Realtime Clock</Description><StartTime><Timestamp dt:dt=""int"">0</Timestamp><DateUtc dt:dt=""string"">2021-04-30T15:08:09Z</DateUtc></StartTime><FrequencyChanges><FrequencyChange><Frequency dt:dt=""r8"">2435595</Frequency><Timestamp dt:dt=""r8"">20911740906</Timestamp><Current dt:dt=""r8"">0</Current><DateUtc dt:dt=""string"">2021-04-30T15:08:09Z</DateUtc></FrequencyChange></FrequencyChanges></Clock>\n";EXP2.2_290421-1007-1;60.025;1.0.0.346;1;Chronos;-562658007;Full;3.0.3.80;3.0.3.80;04-30-2021;30/04/2021 15:08;17:08:09;3.0.3.82;2;Chronos;;2;1;2;TESTVV;Generalbloc;;;;pretest;Chronos;56;1;VV_290421/885.png;3;1;56;-15;blocVVstim;listVVTrial;;;;Chronos;0;;1;-1;388396;200;;0;0;1;1;Chronos;1;0;388596;300;1;722;389318;1;1;Chronos;0;0;388896;0;1;422;389318;;;;;;;;;;;;;;;;;;;
EXP2.2_290421;1007;1;Chronos;<ChronosDeviceInfo><FriendlyName>MyChronos</FriendlyName><DeviceIndex>1</DeviceIndex><SerialNumber>CHR-04301-1186</SerialNumber><EBNVersion>3.0.3.80</EBNVersion><FirmwareVersion>1.33</FirmwareVersion><APIVersion>1.33</APIVersion><USBHostControllerVersion>2.0</USBHostControllerVersion><USBConnectionRoute>USB#ROOT_HUB20#4&9bd2e8a&0#{f18a0e88-c30c-11d0-8815-00a0c906bed8} + USB#VID_8087&PID_0024#5&3026c139&0&1#{f18a0e88-c30c-11d0-8815-00a0c906bed8}(1) + VID_2266&PID_0007(7)</USBConnectionRoute></ChronosDeviceInfo>;"<?xml version=""1.0""?>\n<Clock xmlns:dt=""urn:schemas-microsoft-com:datatypes""><Description dt:dt=""string"">E-Prime Primary Realtime Clock</Description><StartTime><Timestamp dt:dt=""int"">0</Timestamp><DateUtc dt:dt=""string"">2021-04-30T15:08:09Z</DateUtc></StartTime><FrequencyChanges><FrequencyChange><Frequency dt:dt=""r8"">2435595</Frequency><Timestamp dt:dt=""r8"">20911740906</Timestamp><Current dt:dt=""r8"">0</Current><DateUtc dt:dt=""string"">2021-04-30T15:08:09Z</DateUtc></FrequencyChange></FrequencyChanges></Clock>\n";EXP2.2_290421-1007-1;60.025;1.0.0.346;1;Chronos;-562658007;Full;3.0.3.80;3.0.3.80;04-30-2021;30/04/2021 15:08;17:08:09;3.0.3.82;2;Chronos;;2;1;2;TESTVV;Generalbloc;;;;pretest;Chronos;57;1;VV_290421/880.png;2;1;57;-20;blocVVstim;listVVTrial;;;;Chronos;0;;1;-1;390845;200;;0;0;1;1;Chronos;1;0;391045;300;1;704;391749;1;1;Chronos;0;0;391345;0;1;404;391749;;;;;;;;;;;;;;;;;;;
EXP2.2_290421;1007;1;Chronos;<ChronosDeviceInfo><FriendlyName>MyChronos</FriendlyName><DeviceIndex>1</DeviceIndex><SerialNumber>CHR-04301-1186</SerialNumber><EBNVersion>3.0.3.80</EBNVersion><FirmwareVersion>1.33</FirmwareVersion><APIVersion>1.33</APIVersion><USBHostControllerVersion>2.0</USBHostControllerVersion><USBConnectionRoute>USB#ROOT_HUB20#4&9bd2e8a&0#{f18a0e88-c30c-11d0-8815-00a0c906bed8} + USB#VID_8087&PID_0024#5&3026c139&0&1#{f18a0e88-c30c-11d0-8815-00a0c906bed8}(1) + VID_2266&PID_0007(7)</USBConnectionRoute></ChronosDeviceInfo>;"<?xml version=""1.0""?>\n<Clock xmlns:dt=""urn:schemas-microsoft-com:datatypes""><Description dt:dt=""string"">E-Prime Primary Realtime Clock</Description><StartTime><Timestamp dt:dt=""int"">0</Timestamp><DateUtc dt:dt=""string"">2021-04-30T15:08:09Z</DateUtc></StartTime><FrequencyChanges><FrequencyChange><Frequency dt:dt=""r8"">2435595</Frequency><Timestamp dt:dt=""r8"">20911740906</Timestamp><Current dt:dt=""r8"">0</Current><DateUtc dt:dt=""string"">2021-04-30T15:08:09Z</DateUtc></FrequencyChange></FrequencyChanges></Clock>\n";EXP2.2_290421-1007-1;60.025;1.0.0.346;1;Chronos;-562658007;Full;3.0.3.80;3.0.3.80;04-30-2021;30/04/2021 15:08;17:08:09;3.0.3.82;2;Chronos;;2;1;2;TESTVV;Generalbloc;;;;pretest;Chronos;58;1;VV_290421/880.png;2;1;58;-20;blocVVstim;listVVTrial;;;;Chronos;0;;0;-1;393261;200;;0;0;1;1;Chronos;0;0;393461;300;1;698;394159;1;1;Chronos;0;0;393761;0;1;398;394159;;;;;;;;;;;;;;;;;;;
EXP2.2_290421;1007;1;Chronos;<ChronosDeviceInfo><FriendlyName>MyChronos</FriendlyName><DeviceIndex>1</DeviceIndex><SerialNumber>CHR-04301-1186</SerialNumber><EBNVersion>3.0.3.80</EBNVersion><FirmwareVersion>1.33</FirmwareVersion><APIVersion>1.33</APIVersion><USBHostControllerVersion>2.0</USBHostControllerVersion><USBConnectionRoute>USB#ROOT_HUB20#4&9bd2e8a&0#{f18a0e88-c30c-11d0-8815-00a0c906bed8} + USB#VID_8087&PID_0024#5&3026c139&0&1#{f18a0e88-c30c-11d0-8815-00a0c906bed8}(1) + VID_2266&PID_0007(7)</USBConnectionRoute></ChronosDeviceInfo>;"<?xml version=""1.0""?>\n<Clock xmlns:dt=""urn:schemas-microsoft-com:datatypes""><Description dt:dt=""string"">E-Prime Primary Realtime Clock</Description><StartTime><Timestamp dt:dt=""int"">0</Timestamp><DateUtc dt:dt=""string"">2021-04-30T15:08:09Z</DateUtc></StartTime><FrequencyChanges><FrequencyChange><Frequency dt:dt=""r8"">2435595</Frequency><Timestamp dt:dt=""r8"">20911740906</Timestamp><Current dt:dt=""r8"">0</Current><DateUtc dt:dt=""string"">2021-04-30T15:08:09Z</DateUtc></FrequencyChange></FrequencyChanges></Clock>\n";EXP2.2_290421-1007-1;60.025;1.0.0.346;1;Chronos;-562658007;Full;3.0.3.80;3.0.3.80;04-30-2021;30/04/2021 15:08;17:08:09;3.0.3.82;2;Chronos;;2;1;2;TESTVV;Generalbloc;;;;pretest;Chronos;59;1;VV_290421/890.png;4;1;59;-10;blocVVstim;listVVTrial;;;;Chronos;0;;0;0;395677;200;;0;0;1;1;Chronos;0;0;395877;300;1;910;396787;1;1;Chronos;0;0;396177;0;1;610;396787;;;;;;;;;;;;;;;;;;;
EXP2.2_290421;1007;1;Chronos;<ChronosDeviceInfo><FriendlyName>MyChronos</FriendlyName><DeviceIndex>1</DeviceIndex><SerialNumber>CHR-04301-1186</SerialNumber><EBNVersion>3.0.3.80</EBNVersion><FirmwareVersion>1.33</FirmwareVersion><APIVersion>1.33</APIVersion><USBHostControllerVersion>2.0</USBHostControllerVersion><USBConnectionRoute>USB#ROOT_HUB20#4&9bd2e8a&0#{f18a0e88-c30c-11d0-8815-00a0c906bed8} + USB#VID_8087&PID_0024#5&3026c139&0&1#{f18a0e88-c30c-11d0-8815-00a0c906bed8}(1) + VID_2266&PID_0007(7)</USBConnectionRoute></ChronosDeviceInfo>;"<?xml version=""1.0""?>\n<Clock xmlns:dt=""urn:schemas-microsoft-com:datatypes""><Description dt:dt=""string"">E-Prime Primary Realtime Clock</Description><StartTime><Timestamp dt:dt=""int"">0</Timestamp><DateUtc dt:dt=""string"">2021-04-30T15:08:09Z</DateUtc></StartTime><FrequencyChanges><FrequencyChange><Frequency dt:dt=""r8"">2435595</Frequency><Timestamp dt:dt=""r8"">20911740906</Timestamp><Current dt:dt=""r8"">0</Current><DateUtc dt:dt=""string"">2021-04-30T15:08:09Z</DateUtc></FrequencyChange></FrequencyChanges></Clock>\n";EXP2.2_290421-1007-1;60.025;1.0.0.346;1;Chronos;-562658007;Full;3.0.3.80;3.0.3.80;04-30-2021;30/04/2021 15:08;17:08:09;3.0.3.82;2;Chronos;;2;1;2;TESTVV;Generalbloc;;;;pretest;Chronos;60;5;VV_290421/915.png;9;1;60;15;blocVVstim;listVVTrial;;;;Chronos;0;;0;-1;398309;200;;0;0;1;5;Chronos;0;0;398509;300;5;710;399219;1;5;Chronos;0;0;398809;0;5;410;399219;;;;;;;;;;;;;;;;;;;
EXP2.2_290421;1007;1;Chronos;<ChronosDeviceInfo><FriendlyName>MyChronos</FriendlyName><DeviceIndex>1</DeviceIndex><SerialNumber>CHR-04301-1186</SerialNumber><EBNVersion>3.0.3.80</EBNVersion><FirmwareVersion>1.33</FirmwareVersion><APIVersion>1.33</APIVersion><USBHostControllerVersion>2.0</USBHostControllerVersion><USBConnectionRoute>USB#ROOT_HUB20#4&9bd2e8a&0#{f18a0e88-c30c-11d0-8815-00a0c906bed8} + USB#VID_8087&PID_0024#5&3026c139&0&1#{f18a0e88-c30c-11d0-8815-00a0c906bed8}(1) + VID_2266&PID_0007(7)</USBConnectionRoute></ChronosDeviceInfo>;"<?xml version=""1.0""?>\n<Clock xmlns:dt=""urn:schemas-microsoft-com:datatypes""><Description dt:dt=""string"">E-Prime Primary Realtime Clock</Description><StartTime><Timestamp dt:dt=""int"">0</Timestamp><DateUtc dt:dt=""string"">2021-04-30T15:08:09Z</DateUtc></StartTime><FrequencyChanges><FrequencyChange><Frequency dt:dt=""r8"">2435595</Frequency><Timestamp dt:dt=""r8"">20911740906</Timestamp><Current dt:dt=""r8"">0</Current><DateUtc dt:dt=""string"">2021-04-30T15:08:09Z</DateUtc></FrequencyChange></FrequencyChanges></Clock>\n";EXP2.2_290421-1007-1;60.025;1.0.0.346;1;Chronos;-562658007;Full;3.0.3.80;3.0.3.80;04-30-2021;30/04/2021 15:08;17:08:09;3.0.3.82;2;Chronos;;2;1;2;TESTVV;Generalbloc;;;;pretest;Chronos;61;5;VV_290421/905.png;7;1;61;5;blocVVstim;listVVTrial;;;;Chronos;0;;0;0;400742;199;;0;0;1;5;Chronos;1;-1;400941;300;5;1304;402245;1;5;Chronos;0;0;401241;0;5;1004;402245;;;;;;;;;;;;;;;;;;;
