ExperimentName;Subject;Session;calibrage.DEVICE[Session];Chronos.BoxInfo;Clock.Information;DataFile.Basename;Display.RefreshRate;ExperimentVersion;Group;Hello.DEVICE;RandomSeed;RuntimeCapabilities;RuntimeVersion;RuntimeVersionExpected;SessionDate;SessionStartDateTimeUtc;SessionTime;StudioVersion;Block;calibrage.DEVICE[Block];EndTraining.DEVICE;Generalbloc;Generalbloc.Cycle;Generalbloc.Sample;Procedure[Block];Running[Block];TextDisplay1.DEVICE;TextDisplay2.DEVICE;TextTraining.DEVICE;time;VVInst.DEVICE[Block];Trial;correct;image;listVVTrial;listVVTrial.Cycle;listVVTrial.Sample;offset;Procedure[Trial];Running[Trial];SpatialTaskTraining;SpatialTaskTraining.Cycle;SpatialTaskTraining.Sample;VVInst.DEVICE[Trial];vvstimnoresp.ACC;vvstimnoresp.CRESP;vvstimnoresp.DurationError;vvstimnoresp.OnsetDelay;vvstimnoresp.OnsetTime;vvstimnoresp.OnsetToOnsetTime;vvstimnoresp.RESP;vvstimnoresp.RT;vvstimnoresp.RTTime;vvstimresp1.ACC;vvstimresp1.CRESP;vvstimresp1.DEVICE;vvstimresp1.DurationError;vvstimresp1.OnsetDelay;vvstimresp1.OnsetTime;vvstimresp1.OnsetToOnsetTime;vvstimresp1.RESP;vvstimresp1.RT;vvstimresp1.RTTime;vvstimresp2.ACC;vvstimresp2.CRESP;vvstimresp2.DEVICE;vvstimresp2.DurationError;vvstimresp2.OnsetDelay;vvstimresp2.OnsetTime;vvstimresp2.OnsetToOnsetTime;vvstimresp2.RESP;vvstimresp2.RT;vvstimresp2.RTTime;SubTrial;LISTVVRANDOM1;LISTVVRANDOM1.Cycle;LISTVVRANDOM1.Sample;LISTVVRANDOM2;Procedure[SubTrial];Running[SubTrial];VVR;VVRANDOM;VVRANDOMRESP.ACC;VVRANDOMRESP.CRESP;VVRANDOMRESP.DEVICE;VVRANDOMRESP.DurationError;VVRANDOMRESP.OnsetDelay;VVRANDOMRESP.OnsetTime;VVRANDOMRESP.OnsetToOnsetTime;VVRANDOMRESP.RESP;VVRANDOMRESP.RT;VVRANDOMRESP.RTTime
EXP2.2_290421;1013;1;Chronos;<ChronosDeviceInfo><FriendlyName>MyChronos</FriendlyName><DeviceIndex>1</DeviceIndex><SerialNumber>CHR-04301-1186</SerialNumber><EBNVersion>3.0.3.80</EBNVersion><FirmwareVersion>1.33</FirmwareVersion><APIVersion>1.33</APIVersion><USBHostControllerVersion>2.0</USBHostControllerVersion><USBConnectionRoute>USB#ROOT_HUB20#4&9bd2e8a&0#{f18a0e88-c30c-11d0-8815-00a0c906bed8} + USB#VID_8087&PID_0024#5&3026c139&0&1#{f18a0e88-c30c-11d0-8815-00a0c906bed8}(1) + VID_2266&PID_0007(7)</USBConnectionRoute></ChronosDeviceInfo>;"<?xml version=""1.0""?>\n<Clock xmlns:dt=""urn:schemas-microsoft-com:datatypes""><Description dt:dt=""string"">E-Prime Primary Realtime Clock</Description><StartTime><Timestamp dt:dt=""int"">0</Timestamp><DateUtc dt:dt=""string"">2021-05-04T07:57:05Z</DateUtc></StartTime><FrequencyChanges><FrequencyChange><Frequency dt:dt=""r8"">2435576</Frequency><Timestamp dt:dt=""r8"">14212816147</Timestamp><Current dt:dt=""r8"">0</Current><DateUtc dt:dt=""string"">2021-05-04T07:57:05Z</DateUtc></FrequencyChange></FrequencyChanges></Clock>\n";EXP2.2_290421-1013-1;60.024;1.0.0.365;1;Chronos;1328350304;Full;3.0.3.80;3.0.3.80;05/04/2021;04/05/2021 07:57;09:57:06;3.0.3.82;1;Chronos;Chronos;1;1;1;Training;Generalbloc;;;Chronos;pretest;;1;;;;;;;TRAININGVV;SpatialTaskTraining;1;1;1;Chronos;;;;;;;;;;;;;;;;;;;;;;;;;;;;;;1;1;1;1;1;blocVVstimTraining;LISTVVRANDOM1;VV_290421/875.png;VV_290421/880.png;0;;Chronos;-999999;0;873114;0;1;517;873631
EXP2.2_290421;1013;1;Chronos;<ChronosDeviceInfo><FriendlyName>MyChronos</FriendlyName><DeviceIndex>1</DeviceIndex><SerialNumber>CHR-04301-1186</SerialNumber><EBNVersion>3.0.3.80</EBNVersion><FirmwareVersion>1.33</FirmwareVersion><APIVersion>1.33</APIVersion><USBHostControllerVersion>2.0</USBHostControllerVersion><USBConnectionRoute>USB#ROOT_HUB20#4&9bd2e8a&0#{f18a0e88-c30c-11d0-8815-00a0c906bed8} + USB#VID_8087&PID_0024#5&3026c139&0&1#{f18a0e88-c30c-11d0-8815-00a0c906bed8}(1) + VID_2266&PID_0007(7)</USBConnectionRoute></ChronosDeviceInfo>;"<?xml version=""1.0""?>\n<Clock xmlns:dt=""urn:schemas-microsoft-com:datatypes""><Description dt:dt=""string"">E-Prime Primary Realtime Clock</Description><StartTime><Timestamp dt:dt=""int"">0</Timestamp><DateUtc dt:dt=""string"">2021-05-04T07:57:05Z</DateUtc></StartTime><FrequencyChanges><FrequencyChange><Frequency dt:dt=""r8"">2435576</Frequency><Timestamp dt:dt=""r8"">14212816147</Timestamp><Current dt:dt=""r8"">0</Current><DateUtc dt:dt=""string"">2021-05-04T07:57:05Z</DateUtc></FrequencyChange></FrequencyChanges></Clock>\n";EXP2.2_290421-1013-1;60.024;1.0.0.365;1;Chronos;1328350304;Full;3.0.3.80;3.0.3.80;05/04/2021;04/05/2021 07:57;09:57:06;3.0.3.82;1;Chronos;Chronos;1;1;1;Training;Generalbloc;;;Chronos;pretest;;1;;;;;;;TRAININGVV;SpatialTaskTraining;1;1;1;Chronos;;;;;;;;;;;;;;;;;;;;;;;;;;;;;;2;1;1;2;3;blocVVstimTraining;LISTVVRANDOM1;VV_290421/885.png;VV_290421/890.png;0;;Chronos;-999999;-1;875646;0;5;363;876009
EXP2.2_290421;1013;1;Chronos;<ChronosDeviceInfo><FriendlyName>MyChronos</FriendlyName><DeviceIndex>1</DeviceIndex><SerialNumber>CHR-04301-1186</SerialNumber><EBNVersion>3.0.3.80</EBNVersion><FirmwareVersion>1.33</FirmwareVersion><APIVersion>1.33</APIVersion><USBHostControllerVersion>2.0</USBHostControllerVersion><USBConnectionRoute>USB#ROOT_HUB20#4&9bd2e8a&0#{f18a0e88-c30c-11d0-8815-00a0c906bed8} + USB#VID_8087&PID_0024#5&3026c139&0&1#{f18a0e88-c30c-11d0-8815-00a0c906bed8}(1) + VID_2266&PID_0007(7)</USBConnectionRoute></ChronosDeviceInfo>;"<?xml version=""1.0""?>\n<Clock xmlns:dt=""urn:schemas-microsoft-com:datatypes""><Description dt:dt=""string"">E-Prime Primary Realtime Clock</Description><StartTime><Timestamp dt:dt=""int"">0</Timestamp><DateUtc dt:dt=""string"">2021-05-04T07:57:05Z</DateUtc></StartTime><FrequencyChanges><FrequencyChange><Frequency dt:dt=""r8"">2435576</Frequency><Timestamp dt:dt=""r8"">14212816147</Timestamp><Current dt:dt=""r8"">0</Current><DateUtc dt:dt=""string"">2021-05-04T07:57:05Z</DateUtc></FrequencyChange></FrequencyChanges></Clock>\n";EXP2.2_290421-1013-1;60.024;1.0.0.365;1;Chronos;1328350304;Full;3.0.3.80;3.0.3.80;05/04/2021;04/05/2021 07:57;09:57:06;3.0.3.82;1;Chronos;Chronos;1;1;1;Training;Generalbloc;;;Chronos;pretest;;1;;;;;;;TRAININGVV;SpatialTaskTraining;1;1;1;Chronos;;;;;;;;;;;;;;;;;;;;;;;;;;;;;;3;1;1;3;5;blocVVstimTraining;LISTVVRANDOM1;VV_290421/895.png;VV_290421/900.png;0;;Chronos;-999999;0;878029;0;5;3390;881419
EXP2.2_290421;1013;1;Chronos;<ChronosDeviceInfo><FriendlyName>MyChronos</FriendlyName><DeviceIndex>1</DeviceIndex><SerialNumber>CHR-04301-1186</SerialNumber><EBNVersion>3.0.3.80</EBNVersion><FirmwareVersion>1.33</FirmwareVersion><APIVersion>1.33</APIVersion><USBHostControllerVersion>2.0</USBHostControllerVersion><USBConnectionRoute>USB#ROOT_HUB20#4&9bd2e8a&0#{f18a0e88-c30c-11d0-8815-00a0c906bed8} + USB#VID_8087&PID_0024#5&3026c139&0&1#{f18a0e88-c30c-11d0-8815-00a0c906bed8}(1) + VID_2266&PID_0007(7)</USBConnectionRoute></ChronosDeviceInfo>;"<?xml version=""1.0""?>\n<Clock xmlns:dt=""urn:schemas-microsoft-com:datatypes""><Description dt:dt=""string"">E-Prime Primary Realtime Clock</Description><StartTime><Timestamp dt:dt=""int"">0</Timestamp><DateUtc dt:dt=""string"">2021-05-04T07:57:05Z</DateUtc></StartTime><FrequencyChanges><FrequencyChange><Frequency dt:dt=""r8"">2435576</Frequency><Timestamp dt:dt=""r8"">14212816147</Timestamp><Current dt:dt=""r8"">0</Current><DateUtc dt:dt=""string"">2021-05-04T07:57:05Z</DateUtc></FrequencyChange></FrequencyChanges></Clock>\n";EXP2.2_290421-1013-1;60.024;1.0.0.365;1;Chronos;1328350304;Full;3.0.3.80;3.0.3.80;05/04/2021;04/05/2021 07:57;09:57:06;3.0.3.82;1;Chronos;Chronos;1;1;1;Training;Generalbloc;;;Chronos;pretest;;1;;;;;;;TRAININGVV;SpatialTaskTraining;1;1;1;Chronos;;;;;;;;;;;;;;;;;;;;;;;;;;;;;;4;1;1;4;7;blocVVstimTraining;LISTVVRANDOM1;VV_290421/905.png;VV_290421/910.png;0;;Chronos;-999999;-1;883443;0;5;1139;884582
EXP2.2_290421;1013;1;Chronos;<ChronosDeviceInfo><FriendlyName>MyChronos</FriendlyName><DeviceIndex>1</DeviceIndex><SerialNumber>CHR-04301-1186</SerialNumber><EBNVersion>3.0.3.80</EBNVersion><FirmwareVersion>1.33</FirmwareVersion><APIVersion>1.33</APIVersion><USBHostControllerVersion>2.0</USBHostControllerVersion><USBConnectionRoute>USB#ROOT_HUB20#4&9bd2e8a&0#{f18a0e88-c30c-11d0-8815-00a0c906bed8} + USB#VID_8087&PID_0024#5&3026c139&0&1#{f18a0e88-c30c-11d0-8815-00a0c906bed8}(1) + VID_2266&PID_0007(7)</USBConnectionRoute></ChronosDeviceInfo>;"<?xml version=""1.0""?>\n<Clock xmlns:dt=""urn:schemas-microsoft-com:datatypes""><Description dt:dt=""string"">E-Prime Primary Realtime Clock</Description><StartTime><Timestamp dt:dt=""int"">0</Timestamp><DateUtc dt:dt=""string"">2021-05-04T07:57:05Z</DateUtc></StartTime><FrequencyChanges><FrequencyChange><Frequency dt:dt=""r8"">2435576</Frequency><Timestamp dt:dt=""r8"">14212816147</Timestamp><Current dt:dt=""r8"">0</Current><DateUtc dt:dt=""string"">2021-05-04T07:57:05Z</DateUtc></FrequencyChange></FrequencyChanges></Clock>\n";EXP2.2_290421-1013-1;60.024;1.0.0.365;1;Chronos;1328350304;Full;3.0.3.80;3.0.3.80;05/04/2021;04/05/2021 07:57;09:57:06;3.0.3.82;1;Chronos;Chronos;1;1;1;Training;Generalbloc;;;Chronos;pretest;;1;;;;;;;TRAININGVV;SpatialTaskTraining;1;1;1;Chronos;;;;;;;;;;;;;;;;;;;;;;;;;;;;;;5;1;1;5;9;blocVVstimTraining;LISTVVRANDOM1;VV_290421/915.png;VV_290421/920.png;0;;Chronos;-999999;0;886592;0;5;738;887330
EXP2.2_290421;1013;1;Chronos;<ChronosDeviceInfo><FriendlyName>MyChronos</FriendlyName><DeviceIndex>1</DeviceIndex><SerialNumber>CHR-04301-1186</SerialNumber><EBNVersion>3.0.3.80</EBNVersion><FirmwareVersion>1.33</FirmwareVersion><APIVersion>1.33</APIVersion><USBHostControllerVersion>2.0</USBHostControllerVersion><USBConnectionRoute>USB#ROOT_HUB20#4&9bd2e8a&0#{f18a0e88-c30c-11d0-8815-00a0c906bed8} + USB#VID_8087&PID_0024#5&3026c139&0&1#{f18a0e88-c30c-11d0-8815-00a0c906bed8}(1) + VID_2266&PID_0007(7)</USBConnectionRoute></ChronosDeviceInfo>;"<?xml version=""1.0""?>\n<Clock xmlns:dt=""urn:schemas-microsoft-com:datatypes""><Description dt:dt=""string"">E-Prime Primary Realtime Clock</Description><StartTime><Timestamp dt:dt=""int"">0</Timestamp><DateUtc dt:dt=""string"">2021-05-04T07:57:05Z</DateUtc></StartTime><FrequencyChanges><FrequencyChange><Frequency dt:dt=""r8"">2435576</Frequency><Timestamp dt:dt=""r8"">14212816147</Timestamp><Current dt:dt=""r8"">0</Current><DateUtc dt:dt=""string"">2021-05-04T07:57:05Z</DateUtc></FrequencyChange></FrequencyChanges></Clock>\n";EXP2.2_290421-1013-1;60.024;1.0.0.365;1;Chronos;1328350304;Full;3.0.3.80;3.0.3.80;05/04/2021;04/05/2021 07:57;09:57:06;3.0.3.82;1;Chronos;Chronos;1;1;1;Training;Generalbloc;;;Chronos;pretest;;1;;;;;;;TRAININGVV;SpatialTaskTraining;1;1;1;Chronos;;;;;;;;;;;;;;;;;;;;;;;;;;;;;;6;1;1;6;11;blocVVstimTraining;LISTVVRANDOM1;VV_290421/925.png;VV_290421/875.png;0;;Chronos;-999999;0;889358;0;1;273;889631
EXP2.2_290421;1013;1;Chronos;<ChronosDeviceInfo><FriendlyName>MyChronos</FriendlyName><DeviceIndex>1</DeviceIndex><SerialNumber>CHR-04301-1186</SerialNumber><EBNVersion>3.0.3.80</EBNVersion><FirmwareVersion>1.33</FirmwareVersion><APIVersion>1.33</APIVersion><USBHostControllerVersion>2.0</USBHostControllerVersion><USBConnectionRoute>USB#ROOT_HUB20#4&9bd2e8a&0#{f18a0e88-c30c-11d0-8815-00a0c906bed8} + USB#VID_8087&PID_0024#5&3026c139&0&1#{f18a0e88-c30c-11d0-8815-00a0c906bed8}(1) + VID_2266&PID_0007(7)</USBConnectionRoute></ChronosDeviceInfo>;"<?xml version=""1.0""?>\n<Clock xmlns:dt=""urn:schemas-microsoft-com:datatypes""><Description dt:dt=""string"">E-Prime Primary Realtime Clock</Description><StartTime><Timestamp dt:dt=""int"">0</Timestamp><DateUtc dt:dt=""string"">2021-05-04T07:57:05Z</DateUtc></StartTime><FrequencyChanges><FrequencyChange><Frequency dt:dt=""r8"">2435576</Frequency><Timestamp dt:dt=""r8"">14212816147</Timestamp><Current dt:dt=""r8"">0</Current><DateUtc dt:dt=""string"">2021-05-04T07:57:05Z</DateUtc></FrequencyChange></FrequencyChanges></Clock>\n";EXP2.2_290421-1013-1;60.024;1.0.0.365;1;Chronos;1328350304;Full;3.0.3.80;3.0.3.80;05/04/2021;04/05/2021 07:57;09:57:06;3.0.3.82;1;Chronos;Chronos;1;1;1;Training;Generalbloc;;;Chronos;pretest;;1;;;;;;;TRAININGVV;SpatialTaskTraining;1;1;1;Chronos;;;;;;;;;;;;;;;;;;;;;;;;;;;;;;7;1;1;7;2;blocVVstimTraining;LISTVVRANDOM1;VV_290421/880.png;VV_290421/885.png;0;;Chronos;-999999;0;891657;0;1;404;892061
EXP2.2_290421;1013;1;Chronos;<ChronosDeviceInfo><FriendlyName>MyChronos</FriendlyName><DeviceIndex>1</DeviceIndex><SerialNumber>CHR-04301-1186</SerialNumber><EBNVersion>3.0.3.80</EBNVersion><FirmwareVersion>1.33</FirmwareVersion><APIVersion>1.33</APIVersion><USBHostControllerVersion>2.0</USBHostControllerVersion><USBConnectionRoute>USB#ROOT_HUB20#4&9bd2e8a&0#{f18a0e88-c30c-11d0-8815-00a0c906bed8} + USB#VID_8087&PID_0024#5&3026c139&0&1#{f18a0e88-c30c-11d0-8815-00a0c906bed8}(1) + VID_2266&PID_0007(7)</USBConnectionRoute></ChronosDeviceInfo>;"<?xml version=""1.0""?>\n<Clock xmlns:dt=""urn:schemas-microsoft-com:datatypes""><Description dt:dt=""string"">E-Prime Primary Realtime Clock</Description><StartTime><Timestamp dt:dt=""int"">0</Timestamp><DateUtc dt:dt=""string"">2021-05-04T07:57:05Z</DateUtc></StartTime><FrequencyChanges><FrequencyChange><Frequency dt:dt=""r8"">2435576</Frequency><Timestamp dt:dt=""r8"">14212816147</Timestamp><Current dt:dt=""r8"">0</Current><DateUtc dt:dt=""string"">2021-05-04T07:57:05Z</DateUtc></FrequencyChange></FrequencyChanges></Clock>\n";EXP2.2_290421-1013-1;60.024;1.0.0.365;1;Chronos;1328350304;Full;3.0.3.80;3.0.3.80;05/04/2021;04/05/2021 07:57;09:57:06;3.0.3.82;1;Chronos;Chronos;1;1;1;Training;Generalbloc;;;Chronos;pretest;;1;;;;;;;TRAININGVV;SpatialTaskTraining;1;1;1;Chronos;;;;;;;;;;;;;;;;;;;;;;;;;;;;;;8;1;1;8;4;blocVVstimTraining;LISTVVRANDOM1;VV_290421/890.png;VV_290421/895.png;0;;Chronos;-999999;0;894073;0;5;608;894681
EXP2.2_290421;1013;1;Chronos;<ChronosDeviceInfo><FriendlyName>MyChronos</FriendlyName><DeviceIndex>1</DeviceIndex><SerialNumber>CHR-04301-1186</SerialNumber><EBNVersion>3.0.3.80</EBNVersion><FirmwareVersion>1.33</FirmwareVersion><APIVersion>1.33</APIVersion><USBHostControllerVersion>2.0</USBHostControllerVersion><USBConnectionRoute>USB#ROOT_HUB20#4&9bd2e8a&0#{f18a0e88-c30c-11d0-8815-00a0c906bed8} + USB#VID_8087&PID_0024#5&3026c139&0&1#{f18a0e88-c30c-11d0-8815-00a0c906bed8}(1) + VID_2266&PID_0007(7)</USBConnectionRoute></ChronosDeviceInfo>;"<?xml version=""1.0""?>\n<Clock xmlns:dt=""urn:schemas-microsoft-com:datatypes""><Description dt:dt=""string"">E-Prime Primary Realtime Clock</Description><StartTime><Timestamp dt:dt=""int"">0</Timestamp><DateUtc dt:dt=""string"">2021-05-04T07:57:05Z</DateUtc></StartTime><FrequencyChanges><FrequencyChange><Frequency dt:dt=""r8"">2435576</Frequency><Timestamp dt:dt=""r8"">14212816147</Timestamp><Current dt:dt=""r8"">0</Current><DateUtc dt:dt=""string"">2021-05-04T07:57:05Z</DateUtc></FrequencyChange></FrequencyChanges></Clock>\n";EXP2.2_290421-1013-1;60.024;1.0.0.365;1;Chronos;1328350304;Full;3.0.3.80;3.0.3.80;05/04/2021;04/05/2021 07:57;09:57:06;3.0.3.82;1;Chronos;Chronos;1;1;1;Training;Generalbloc;;;Chronos;pretest;;1;;;;;;;TRAININGVV;SpatialTaskTraining;1;1;1;Chronos;;;;;;;;;;;;;;;;;;;;;;;;;;;;;;9;1;1;9;6;blocVVstimTraining;LISTVVRANDOM1;VV_290421/900.png;VV_290421/905.png;0;;Chronos;-999999;0;896705;0;5;227;896932
EXP2.2_290421;1013;1;Chronos;<ChronosDeviceInfo><FriendlyName>MyChronos</FriendlyName><DeviceIndex>1</DeviceIndex><SerialNumber>CHR-04301-1186</SerialNumber><EBNVersion>3.0.3.80</EBNVersion><FirmwareVersion>1.33</FirmwareVersion><APIVersion>1.33</APIVersion><USBHostControllerVersion>2.0</USBHostControllerVersion><USBConnectionRoute>USB#ROOT_HUB20#4&9bd2e8a&0#{f18a0e88-c30c-11d0-8815-00a0c906bed8} + USB#VID_8087&PID_0024#5&3026c139&0&1#{f18a0e88-c30c-11d0-8815-00a0c906bed8}(1) + VID_2266&PID_0007(7)</USBConnectionRoute></ChronosDeviceInfo>;"<?xml version=""1.0""?>\n<Clock xmlns:dt=""urn:schemas-microsoft-com:datatypes""><Description dt:dt=""string"">E-Prime Primary Realtime Clock</Description><StartTime><Timestamp dt:dt=""int"">0</Timestamp><DateUtc dt:dt=""string"">2021-05-04T07:57:05Z</DateUtc></StartTime><FrequencyChanges><FrequencyChange><Frequency dt:dt=""r8"">2435576</Frequency><Timestamp dt:dt=""r8"">14212816147</Timestamp><Current dt:dt=""r8"">0</Current><DateUtc dt:dt=""string"">2021-05-04T07:57:05Z</DateUtc></FrequencyChange></FrequencyChanges></Clock>\n";EXP2.2_290421-1013-1;60.024;1.0.0.365;1;Chronos;1328350304;Full;3.0.3.80;3.0.3.80;05/04/2021;04/05/2021 07:57;09:57:06;3.0.3.82;1;Chronos;Chronos;1;1;1;Training;Generalbloc;;;Chronos;pretest;;1;;;;;;;TRAININGVV;SpatialTaskTraining;1;1;1;Chronos;;;;;;;;;;;;;;;;;;;;;;;;;;;;;;10;1;1;10;8;blocVVstimTraining;LISTVVRANDOM1;VV_290421/910.png;VV_290421/915.png;0;;Chronos;-999999;0;898954;0;5;248;899202
EXP2.2_290421;1013;1;Chronos;<ChronosDeviceInfo><FriendlyName>MyChronos</FriendlyName><DeviceIndex>1</DeviceIndex><SerialNumber>CHR-04301-1186</SerialNumber><EBNVersion>3.0.3.80</EBNVersion><FirmwareVersion>1.33</FirmwareVersion><APIVersion>1.33</APIVersion><USBHostControllerVersion>2.0</USBHostControllerVersion><USBConnectionRoute>USB#ROOT_HUB20#4&9bd2e8a&0#{f18a0e88-c30c-11d0-8815-00a0c906bed8} + USB#VID_8087&PID_0024#5&3026c139&0&1#{f18a0e88-c30c-11d0-8815-00a0c906bed8}(1) + VID_2266&PID_0007(7)</USBConnectionRoute></ChronosDeviceInfo>;"<?xml version=""1.0""?>\n<Clock xmlns:dt=""urn:schemas-microsoft-com:datatypes""><Description dt:dt=""string"">E-Prime Primary Realtime Clock</Description><StartTime><Timestamp dt:dt=""int"">0</Timestamp><DateUtc dt:dt=""string"">2021-05-04T07:57:05Z</DateUtc></StartTime><FrequencyChanges><FrequencyChange><Frequency dt:dt=""r8"">2435576</Frequency><Timestamp dt:dt=""r8"">14212816147</Timestamp><Current dt:dt=""r8"">0</Current><DateUtc dt:dt=""string"">2021-05-04T07:57:05Z</DateUtc></FrequencyChange></FrequencyChanges></Clock>\n";EXP2.2_290421-1013-1;60.024;1.0.0.365;1;Chronos;1328350304;Full;3.0.3.80;3.0.3.80;05/04/2021;04/05/2021 07:57;09:57:06;3.0.3.82;2;Chronos;;2;1;2;TESTVV;Generalbloc;;;;pretest;Chronos;1;1;VV_290421/875.png;1;1;1;-25;blocVVstim;listVVTrial;;;;Chronos;0;;0;0;942805;200;;0;0;1;1;Chronos;0;0;943005;299;1;354;943359;1;1;Chronos;1;-1;943304;0;1;55;943359;;;;;;;;;;;;;;;;;;;
EXP2.2_290421;1013;1;Chronos;<ChronosDeviceInfo><FriendlyName>MyChronos</FriendlyName><DeviceIndex>1</DeviceIndex><SerialNumber>CHR-04301-1186</SerialNumber><EBNVersion>3.0.3.80</EBNVersion><FirmwareVersion>1.33</FirmwareVersion><APIVersion>1.33</APIVersion><USBHostControllerVersion>2.0</USBHostControllerVersion><USBConnectionRoute>USB#ROOT_HUB20#4&9bd2e8a&0#{f18a0e88-c30c-11d0-8815-00a0c906bed8} + USB#VID_8087&PID_0024#5&3026c139&0&1#{f18a0e88-c30c-11d0-8815-00a0c906bed8}(1) + VID_2266&PID_0007(7)</USBConnectionRoute></ChronosDeviceInfo>;"<?xml version=""1.0""?>\n<Clock xmlns:dt=""urn:schemas-microsoft-com:datatypes""><Description dt:dt=""string"">E-Prime Primary Realtime Clock</Description><StartTime><Timestamp dt:dt=""int"">0</Timestamp><DateUtc dt:dt=""string"">2021-05-04T07:57:05Z</DateUtc></StartTime><FrequencyChanges><FrequencyChange><Frequency dt:dt=""r8"">2435576</Frequency><Timestamp dt:dt=""r8"">14212816147</Timestamp><Current dt:dt=""r8"">0</Current><DateUtc dt:dt=""string"">2021-05-04T07:57:05Z</DateUtc></FrequencyChange></FrequencyChanges></Clock>\n";EXP2.2_290421-1013-1;60.024;1.0.0.365;1;Chronos;1328350304;Full;3.0.3.80;3.0.3.80;05/04/2021;04/05/2021 07:57;09:57:06;3.0.3.82;2;Chronos;;2;1;2;TESTVV;Generalbloc;;;;pretest;Chronos;2;5;VV_290421/920.png;10;1;2;20;blocVVstim;listVVTrial;;;;Chronos;0;;0;-1;944887;200;;0;0;1;5;Chronos;0;0;945087;300;5;334;945421;1;5;Chronos;0;0;945387;0;5;34;945421;;;;;;;;;;;;;;;;;;;
EXP2.2_290421;1013;1;Chronos;<ChronosDeviceInfo><FriendlyName>MyChronos</FriendlyName><DeviceIndex>1</DeviceIndex><SerialNumber>CHR-04301-1186</SerialNumber><EBNVersion>3.0.3.80</EBNVersion><FirmwareVersion>1.33</FirmwareVersion><APIVersion>1.33</APIVersion><USBHostControllerVersion>2.0</USBHostControllerVersion><USBConnectionRoute>USB#ROOT_HUB20#4&9bd2e8a&0#{f18a0e88-c30c-11d0-8815-00a0c906bed8} + USB#VID_8087&PID_0024#5&3026c139&0&1#{f18a0e88-c30c-11d0-8815-00a0c906bed8}(1) + VID_2266&PID_0007(7)</USBConnectionRoute></ChronosDeviceInfo>;"<?xml version=""1.0""?>\n<Clock xmlns:dt=""urn:schemas-microsoft-com:datatypes""><Description dt:dt=""string"">E-Prime Primary Realtime Clock</Description><StartTime><Timestamp dt:dt=""int"">0</Timestamp><DateUtc dt:dt=""string"">2021-05-04T07:57:05Z</DateUtc></StartTime><FrequencyChanges><FrequencyChange><Frequency dt:dt=""r8"">2435576</Frequency><Timestamp dt:dt=""r8"">14212816147</Timestamp><Current dt:dt=""r8"">0</Current><DateUtc dt:dt=""string"">2021-05-04T07:57:05Z</DateUtc></FrequencyChange></FrequencyChanges></Clock>\n";EXP2.2_290421-1013-1;60.024;1.0.0.365;1;Chronos;1328350304;Full;3.0.3.80;3.0.3.80;05/04/2021;04/05/2021 07:57;09:57:06;3.0.3.82;2;Chronos;;2;1;2;TESTVV;Generalbloc;;;;pretest;Chronos;3;5;VV_290421/920.png;10;1;3;20;blocVVstim;listVVTrial;;;;Chronos;0;;1;-1;946936;200;;0;0;1;5;Chronos;1;0;947136;300;5;418;947554;1;5;Chronos;0;0;947436;0;5;118;947554;;;;;;;;;;;;;;;;;;;
EXP2.2_290421;1013;1;Chronos;<ChronosDeviceInfo><FriendlyName>MyChronos</FriendlyName><DeviceIndex>1</DeviceIndex><SerialNumber>CHR-04301-1186</SerialNumber><EBNVersion>3.0.3.80</EBNVersion><FirmwareVersion>1.33</FirmwareVersion><APIVersion>1.33</APIVersion><USBHostControllerVersion>2.0</USBHostControllerVersion><USBConnectionRoute>USB#ROOT_HUB20#4&9bd2e8a&0#{f18a0e88-c30c-11d0-8815-00a0c906bed8} + USB#VID_8087&PID_0024#5&3026c139&0&1#{f18a0e88-c30c-11d0-8815-00a0c906bed8}(1) + VID_2266&PID_0007(7)</USBConnectionRoute></ChronosDeviceInfo>;"<?xml version=""1.0""?>\n<Clock xmlns:dt=""urn:schemas-microsoft-com:datatypes""><Description dt:dt=""string"">E-Prime Primary Realtime Clock</Description><StartTime><Timestamp dt:dt=""int"">0</Timestamp><DateUtc dt:dt=""string"">2021-05-04T07:57:05Z</DateUtc></StartTime><FrequencyChanges><FrequencyChange><Frequency dt:dt=""r8"">2435576</Frequency><Timestamp dt:dt=""r8"">14212816147</Timestamp><Current dt:dt=""r8"">0</Current><DateUtc dt:dt=""string"">2021-05-04T07:57:05Z</DateUtc></FrequencyChange></FrequencyChanges></Clock>\n";EXP2.2_290421-1013-1;60.024;1.0.0.365;1;Chronos;1328350304;Full;3.0.3.80;3.0.3.80;05/04/2021;04/05/2021 07:57;09:57:06;3.0.3.82;2;Chronos;;2;1;2;TESTVV;Generalbloc;;;;pretest;Chronos;4;1;VV_290421/895.png;5;1;4;-5;blocVVstim;listVVTrial;;;;Chronos;0;;0;0;949069;200;;0;0;0;1;Chronos;0;0;949269;300;5;732;950001;0;1;Chronos;0;0;949569;0;5;432;950001;;;;;;;;;;;;;;;;;;;
EXP2.2_290421;1013;1;Chronos;<ChronosDeviceInfo><FriendlyName>MyChronos</FriendlyName><DeviceIndex>1</DeviceIndex><SerialNumber>CHR-04301-1186</SerialNumber><EBNVersion>3.0.3.80</EBNVersion><FirmwareVersion>1.33</FirmwareVersion><APIVersion>1.33</APIVersion><USBHostControllerVersion>2.0</USBHostControllerVersion><USBConnectionRoute>USB#ROOT_HUB20#4&9bd2e8a&0#{f18a0e88-c30c-11d0-8815-00a0c906bed8} + USB#VID_8087&PID_0024#5&3026c139&0&1#{f18a0e88-c30c-11d0-8815-00a0c906bed8}(1) + VID_2266&PID_0007(7)</USBConnectionRoute></ChronosDeviceInfo>;"<?xml version=""1.0""?>\n<Clock xmlns:dt=""urn:schemas-microsoft-com:datatypes""><Description dt:dt=""string"">E-Prime Primary Realtime Clock</Description><StartTime><Timestamp dt:dt=""int"">0</Timestamp><DateUtc dt:dt=""string"">2021-05-04T07:57:05Z</DateUtc></StartTime><FrequencyChanges><FrequencyChange><Frequency dt:dt=""r8"">2435576</Frequency><Timestamp dt:dt=""r8"">14212816147</Timestamp><Current dt:dt=""r8"">0</Current><DateUtc dt:dt=""string"">2021-05-04T07:57:05Z</DateUtc></FrequencyChange></FrequencyChanges></Clock>\n";EXP2.2_290421-1013-1;60.024;1.0.0.365;1;Chronos;1328350304;Full;3.0.3.80;3.0.3.80;05/04/2021;04/05/2021 07:57;09:57:06;3.0.3.82;2;Chronos;;2;1;2;TESTVV;Generalbloc;;;;pretest;Chronos;5;1;VV_290421/875.png;1;1;5;-25;blocVVstim;listVVTrial;;;;Chronos;0;;0;-1;951518;200;;0;0;1;1;Chronos;0;0;951718;300;1;450;952168;1;1;Chronos;0;0;952018;0;1;150;952168;;;;;;;;;;;;;;;;;;;
EXP2.2_290421;1013;1;Chronos;<ChronosDeviceInfo><FriendlyName>MyChronos</FriendlyName><DeviceIndex>1</DeviceIndex><SerialNumber>CHR-04301-1186</SerialNumber><EBNVersion>3.0.3.80</EBNVersion><FirmwareVersion>1.33</FirmwareVersion><APIVersion>1.33</APIVersion><USBHostControllerVersion>2.0</USBHostControllerVersion><USBConnectionRoute>USB#ROOT_HUB20#4&9bd2e8a&0#{f18a0e88-c30c-11d0-8815-00a0c906bed8} + USB#VID_8087&PID_0024#5&3026c139&0&1#{f18a0e88-c30c-11d0-8815-00a0c906bed8}(1) + VID_2266&PID_0007(7)</USBConnectionRoute></ChronosDeviceInfo>;"<?xml version=""1.0""?>\n<Clock xmlns:dt=""urn:schemas-microsoft-com:datatypes""><Description dt:dt=""string"">E-Prime Primary Realtime Clock</Description><StartTime><Timestamp dt:dt=""int"">0</Timestamp><DateUtc dt:dt=""string"">2021-05-04T07:57:05Z</DateUtc></StartTime><FrequencyChanges><FrequencyChange><Frequency dt:dt=""r8"">2435576</Frequency><Timestamp dt:dt=""r8"">14212816147</Timestamp><Current dt:dt=""r8"">0</Current><DateUtc dt:dt=""string"">2021-05-04T07:57:05Z</DateUtc></FrequencyChange></FrequencyChanges></Clock>\n";EXP2.2_290421-1013-1;60.024;1.0.0.365;1;Chronos;1328350304;Full;3.0.3.80;3.0.3.80;05/04/2021;04/05/2021 07:57;09:57:06;3.0.3.82;2;Chronos;;2;1;2;TESTVV;Generalbloc;;;;pretest;Chronos;6;1;VV_290421/880.png;2;1;6;-20;blocVVstim;listVVTrial;;;;Chronos;0;;0;0;953684;200;;0;0;1;1;Chronos;0;0;953884;300;1;395;954279;1;1;Chronos;0;0;954184;0;1;95;954279;;;;;;;;;;;;;;;;;;;
EXP2.2_290421;1013;1;Chronos;<ChronosDeviceInfo><FriendlyName>MyChronos</FriendlyName><DeviceIndex>1</DeviceIndex><SerialNumber>CHR-04301-1186</SerialNumber><EBNVersion>3.0.3.80</EBNVersion><FirmwareVersion>1.33</FirmwareVersion><APIVersion>1.33</APIVersion><USBHostControllerVersion>2.0</USBHostControllerVersion><USBConnectionRoute>USB#ROOT_HUB20#4&9bd2e8a&0#{f18a0e88-c30c-11d0-8815-00a0c906bed8} + USB#VID_8087&PID_0024#5&3026c139&0&1#{f18a0e88-c30c-11d0-8815-00a0c906bed8}(1) + VID_2266&PID_0007(7)</USBConnectionRoute></ChronosDeviceInfo>;"<?xml version=""1.0""?>\n<Clock xmlns:dt=""urn:schemas-microsoft-com:datatypes""><Description dt:dt=""string"">E-Prime Primary Realtime Clock</Description><StartTime><Timestamp dt:dt=""int"">0</Timestamp><DateUtc dt:dt=""string"">2021-05-04T07:57:05Z</DateUtc></StartTime><FrequencyChanges><FrequencyChange><Frequency dt:dt=""r8"">2435576</Frequency><Timestamp dt:dt=""r8"">14212816147</Timestamp><Current dt:dt=""r8"">0</Current><DateUtc dt:dt=""string"">2021-05-04T07:57:05Z</DateUtc></FrequencyChange></FrequencyChanges></Clock>\n";EXP2.2_290421-1013-1;60.024;1.0.0.365;1;Chronos;1328350304;Full;3.0.3.80;3.0.3.80;05/04/2021;04/05/2021 07:57;09:57:06;3.0.3.82;2;Chronos;;2;1;2;TESTVV;Generalbloc;;;;pretest;Chronos;7;1;VV_290421/895.png;5;1;7;-5;blocVVstim;listVVTrial;;;;Chronos;0;;0;0;955800;200;;0;0;1;1;Chronos;0;0;956000;300;1;579;956579;1;1;Chronos;0;0;956300;0;1;279;956579;;;;;;;;;;;;;;;;;;;
EXP2.2_290421;1013;1;Chronos;<ChronosDeviceInfo><FriendlyName>MyChronos</FriendlyName><DeviceIndex>1</DeviceIndex><SerialNumber>CHR-04301-1186</SerialNumber><EBNVersion>3.0.3.80</EBNVersion><FirmwareVersion>1.33</FirmwareVersion><APIVersion>1.33</APIVersion><USBHostControllerVersion>2.0</USBHostControllerVersion><USBConnectionRoute>USB#ROOT_HUB20#4&9bd2e8a&0#{f18a0e88-c30c-11d0-8815-00a0c906bed8} + USB#VID_8087&PID_0024#5&3026c139&0&1#{f18a0e88-c30c-11d0-8815-00a0c906bed8}(1) + VID_2266&PID_0007(7)</USBConnectionRoute></ChronosDeviceInfo>;"<?xml version=""1.0""?>\n<Clock xmlns:dt=""urn:schemas-microsoft-com:datatypes""><Description dt:dt=""string"">E-Prime Primary Realtime Clock</Description><StartTime><Timestamp dt:dt=""int"">0</Timestamp><DateUtc dt:dt=""string"">2021-05-04T07:57:05Z</DateUtc></StartTime><FrequencyChanges><FrequencyChange><Frequency dt:dt=""r8"">2435576</Frequency><Timestamp dt:dt=""r8"">14212816147</Timestamp><Current dt:dt=""r8"">0</Current><DateUtc dt:dt=""string"">2021-05-04T07:57:05Z</DateUtc></FrequencyChange></FrequencyChanges></Clock>\n";EXP2.2_290421-1013-1;60.024;1.0.0.365;1;Chronos;1328350304;Full;3.0.3.80;3.0.3.80;05/04/2021;04/05/2021 07:57;09:57:06;3.0.3.82;2;Chronos;;2;1;2;TESTVV;Generalbloc;;;;pretest;Chronos;8;5;VV_290421/905.png;7;1;8;5;blocVVstim;listVVTrial;;;;Chronos;0;;0;0;958099;200;;0;0;1;5;Chronos;0;0;958299;300;5;697;958996;1;5;Chronos;0;0;958599;0;5;397;958996;;;;;;;;;;;;;;;;;;;
EXP2.2_290421;1013;1;Chronos;<ChronosDeviceInfo><FriendlyName>MyChronos</FriendlyName><DeviceIndex>1</DeviceIndex><SerialNumber>CHR-04301-1186</SerialNumber><EBNVersion>3.0.3.80</EBNVersion><FirmwareVersion>1.33</FirmwareVersion><APIVersion>1.33</APIVersion><USBHostControllerVersion>2.0</USBHostControllerVersion><USBConnectionRoute>USB#ROOT_HUB20#4&9bd2e8a&0#{f18a0e88-c30c-11d0-8815-00a0c906bed8} + USB#VID_8087&PID_0024#5&3026c139&0&1#{f18a0e88-c30c-11d0-8815-00a0c906bed8}(1) + VID_2266&PID_0007(7)</USBConnectionRoute></ChronosDeviceInfo>;"<?xml version=""1.0""?>\n<Clock xmlns:dt=""urn:schemas-microsoft-com:datatypes""><Description dt:dt=""string"">E-Prime Primary Realtime Clock</Description><StartTime><Timestamp dt:dt=""int"">0</Timestamp><DateUtc dt:dt=""string"">2021-05-04T07:57:05Z</DateUtc></StartTime><FrequencyChanges><FrequencyChange><Frequency dt:dt=""r8"">2435576</Frequency><Timestamp dt:dt=""r8"">14212816147</Timestamp><Current dt:dt=""r8"">0</Current><DateUtc dt:dt=""string"">2021-05-04T07:57:05Z</DateUtc></FrequencyChange></FrequencyChanges></Clock>\n";EXP2.2_290421-1013-1;60.024;1.0.0.365;1;Chronos;1328350304;Full;3.0.3.80;3.0.3.80;05/04/2021;04/05/2021 07:57;09:57:06;3.0.3.82;2;Chronos;;2;1;2;TESTVV;Generalbloc;;;;pretest;Chronos;9;15;VV_290421/900.png;6;1;9;0;blocVVstim;listVVTrial;;;;Chronos;0;;0;0;960515;200;;0;0;0;15;Chronos;0;0;960715;0;5;231;960946;0;;;-999999;0;0;0;;0;0;;;;;;;;;;;;;;;;;;;
EXP2.2_290421;1013;1;Chronos;<ChronosDeviceInfo><FriendlyName>MyChronos</FriendlyName><DeviceIndex>1</DeviceIndex><SerialNumber>CHR-04301-1186</SerialNumber><EBNVersion>3.0.3.80</EBNVersion><FirmwareVersion>1.33</FirmwareVersion><APIVersion>1.33</APIVersion><USBHostControllerVersion>2.0</USBHostControllerVersion><USBConnectionRoute>USB#ROOT_HUB20#4&9bd2e8a&0#{f18a0e88-c30c-11d0-8815-00a0c906bed8} + USB#VID_8087&PID_0024#5&3026c139&0&1#{f18a0e88-c30c-11d0-8815-00a0c906bed8}(1) + VID_2266&PID_0007(7)</USBConnectionRoute></ChronosDeviceInfo>;"<?xml version=""1.0""?>\n<Clock xmlns:dt=""urn:schemas-microsoft-com:datatypes""><Description dt:dt=""string"">E-Prime Primary Realtime Clock</Description><StartTime><Timestamp dt:dt=""int"">0</Timestamp><DateUtc dt:dt=""string"">2021-05-04T07:57:05Z</DateUtc></StartTime><FrequencyChanges><FrequencyChange><Frequency dt:dt=""r8"">2435576</Frequency><Timestamp dt:dt=""r8"">14212816147</Timestamp><Current dt:dt=""r8"">0</Current><DateUtc dt:dt=""string"">2021-05-04T07:57:05Z</DateUtc></FrequencyChange></FrequencyChanges></Clock>\n";EXP2.2_290421-1013-1;60.024;1.0.0.365;1;Chronos;1328350304;Full;3.0.3.80;3.0.3.80;05/04/2021;04/05/2021 07:57;09:57:06;3.0.3.82;2;Chronos;;2;1;2;TESTVV;Generalbloc;;;;pretest;Chronos;10;1;VV_290421/890.png;4;1;10;-10;blocVVstim;listVVTrial;;;;Chronos;0;;0;0;962531;200;;0;0;0;1;Chronos;0;0;962731;299;5;503;963234;0;1;Chronos;0;-1;963030;0;5;204;963234;;;;;;;;;;;;;;;;;;;
EXP2.2_290421;1013;1;Chronos;<ChronosDeviceInfo><FriendlyName>MyChronos</FriendlyName><DeviceIndex>1</DeviceIndex><SerialNumber>CHR-04301-1186</SerialNumber><EBNVersion>3.0.3.80</EBNVersion><FirmwareVersion>1.33</FirmwareVersion><APIVersion>1.33</APIVersion><USBHostControllerVersion>2.0</USBHostControllerVersion><USBConnectionRoute>USB#ROOT_HUB20#4&9bd2e8a&0#{f18a0e88-c30c-11d0-8815-00a0c906bed8} + USB#VID_8087&PID_0024#5&3026c139&0&1#{f18a0e88-c30c-11d0-8815-00a0c906bed8}(1) + VID_2266&PID_0007(7)</USBConnectionRoute></ChronosDeviceInfo>;"<?xml version=""1.0""?>\n<Clock xmlns:dt=""urn:schemas-microsoft-com:datatypes""><Description dt:dt=""string"">E-Prime Primary Realtime Clock</Description><StartTime><Timestamp dt:dt=""int"">0</Timestamp><DateUtc dt:dt=""string"">2021-05-04T07:57:05Z</DateUtc></StartTime><FrequencyChanges><FrequencyChange><Frequency dt:dt=""r8"">2435576</Frequency><Timestamp dt:dt=""r8"">14212816147</Timestamp><Current dt:dt=""r8"">0</Current><DateUtc dt:dt=""string"">2021-05-04T07:57:05Z</DateUtc></FrequencyChange></FrequencyChanges></Clock>\n";EXP2.2_290421-1013-1;60.024;1.0.0.365;1;Chronos;1328350304;Full;3.0.3.80;3.0.3.80;05/04/2021;04/05/2021 07:57;09:57:06;3.0.3.82;2;Chronos;;2;1;2;TESTVV;Generalbloc;;;;pretest;Chronos;11;15;VV_290421/900.png;6;1;11;0;blocVVstim;listVVTrial;;;;Chronos;0;;0;-1;964813;200;;0;0;0;15;Chronos;0;0;965013;300;5;376;965389;0;15;Chronos;0;0;965313;0;5;76;965389;;;;;;;;;;;;;;;;;;;
EXP2.2_290421;1013;1;Chronos;<ChronosDeviceInfo><FriendlyName>MyChronos</FriendlyName><DeviceIndex>1</DeviceIndex><SerialNumber>CHR-04301-1186</SerialNumber><EBNVersion>3.0.3.80</EBNVersion><FirmwareVersion>1.33</FirmwareVersion><APIVersion>1.33</APIVersion><USBHostControllerVersion>2.0</USBHostControllerVersion><USBConnectionRoute>USB#ROOT_HUB20#4&9bd2e8a&0#{f18a0e88-c30c-11d0-8815-00a0c906bed8} + USB#VID_8087&PID_0024#5&3026c139&0&1#{f18a0e88-c30c-11d0-8815-00a0c906bed8}(1) + VID_2266&PID_0007(7)</USBConnectionRoute></ChronosDeviceInfo>;"<?xml version=""1.0""?>\n<Clock xmlns:dt=""urn:schemas-microsoft-com:datatypes""><Description dt:dt=""string"">E-Prime Primary Realtime Clock</Description><StartTime><Timestamp dt:dt=""int"">0</Timestamp><DateUtc dt:dt=""string"">2021-05-04T07:57:05Z</DateUtc></StartTime><FrequencyChanges><FrequencyChange><Frequency dt:dt=""r8"">2435576</Frequency><Timestamp dt:dt=""r8"">14212816147</Timestamp><Current dt:dt=""r8"">0</Current><DateUtc dt:dt=""string"">2021-05-04T07:57:05Z</DateUtc></FrequencyChange></FrequencyChanges></Clock>\n";EXP2.2_290421-1013-1;60.024;1.0.0.365;1;Chronos;1328350304;Full;3.0.3.80;3.0.3.80;05/04/2021;04/05/2021 07:57;09:57:06;3.0.3.82;2;Chronos;;2;1;2;TESTVV;Generalbloc;;;;pretest;Chronos;12;1;VV_290421/890.png;4;1;12;-10;blocVVstim;listVVTrial;;;;Chronos;0;;0;-1;966912;200;;0;0;1;1;Chronos;0;0;967112;300;1;493;967605;1;1;Chronos;0;0;967412;0;1;193;967605;;;;;;;;;;;;;;;;;;;
EXP2.2_290421;1013;1;Chronos;<ChronosDeviceInfo><FriendlyName>MyChronos</FriendlyName><DeviceIndex>1</DeviceIndex><SerialNumber>CHR-04301-1186</SerialNumber><EBNVersion>3.0.3.80</EBNVersion><FirmwareVersion>1.33</FirmwareVersion><APIVersion>1.33</APIVersion><USBHostControllerVersion>2.0</USBHostControllerVersion><USBConnectionRoute>USB#ROOT_HUB20#4&9bd2e8a&0#{f18a0e88-c30c-11d0-8815-00a0c906bed8} + USB#VID_8087&PID_0024#5&3026c139&0&1#{f18a0e88-c30c-11d0-8815-00a0c906bed8}(1) + VID_2266&PID_0007(7)</USBConnectionRoute></ChronosDeviceInfo>;"<?xml version=""1.0""?>\n<Clock xmlns:dt=""urn:schemas-microsoft-com:datatypes""><Description dt:dt=""string"">E-Prime Primary Realtime Clock</Description><StartTime><Timestamp dt:dt=""int"">0</Timestamp><DateUtc dt:dt=""string"">2021-05-04T07:57:05Z</DateUtc></StartTime><FrequencyChanges><FrequencyChange><Frequency dt:dt=""r8"">2435576</Frequency><Timestamp dt:dt=""r8"">14212816147</Timestamp><Current dt:dt=""r8"">0</Current><DateUtc dt:dt=""string"">2021-05-04T07:57:05Z</DateUtc></FrequencyChange></FrequencyChanges></Clock>\n";EXP2.2_290421-1013-1;60.024;1.0.0.365;1;Chronos;1328350304;Full;3.0.3.80;3.0.3.80;05/04/2021;04/05/2021 07:57;09:57:06;3.0.3.82;2;Chronos;;2;1;2;TESTVV;Generalbloc;;;;pretest;Chronos;13;5;VV_290421/925.png;11;1;13;25;blocVVstim;listVVTrial;;;;Chronos;0;;0;-1;969128;200;;0;0;1;5;Chronos;0;0;969328;300;5;400;969728;1;5;Chronos;0;0;969628;0;5;100;969728;;;;;;;;;;;;;;;;;;;
EXP2.2_290421;1013;1;Chronos;<ChronosDeviceInfo><FriendlyName>MyChronos</FriendlyName><DeviceIndex>1</DeviceIndex><SerialNumber>CHR-04301-1186</SerialNumber><EBNVersion>3.0.3.80</EBNVersion><FirmwareVersion>1.33</FirmwareVersion><APIVersion>1.33</APIVersion><USBHostControllerVersion>2.0</USBHostControllerVersion><USBConnectionRoute>USB#ROOT_HUB20#4&9bd2e8a&0#{f18a0e88-c30c-11d0-8815-00a0c906bed8} + USB#VID_8087&PID_0024#5&3026c139&0&1#{f18a0e88-c30c-11d0-8815-00a0c906bed8}(1) + VID_2266&PID_0007(7)</USBConnectionRoute></ChronosDeviceInfo>;"<?xml version=""1.0""?>\n<Clock xmlns:dt=""urn:schemas-microsoft-com:datatypes""><Description dt:dt=""string"">E-Prime Primary Realtime Clock</Description><StartTime><Timestamp dt:dt=""int"">0</Timestamp><DateUtc dt:dt=""string"">2021-05-04T07:57:05Z</DateUtc></StartTime><FrequencyChanges><FrequencyChange><Frequency dt:dt=""r8"">2435576</Frequency><Timestamp dt:dt=""r8"">14212816147</Timestamp><Current dt:dt=""r8"">0</Current><DateUtc dt:dt=""string"">2021-05-04T07:57:05Z</DateUtc></FrequencyChange></FrequencyChanges></Clock>\n";EXP2.2_290421-1013-1;60.024;1.0.0.365;1;Chronos;1328350304;Full;3.0.3.80;3.0.3.80;05/04/2021;04/05/2021 07:57;09:57:06;3.0.3.82;2;Chronos;;2;1;2;TESTVV;Generalbloc;;;;pretest;Chronos;14;5;VV_290421/915.png;9;1;14;15;blocVVstim;listVVTrial;;;;Chronos;0;;0;-1;971244;200;;0;0;0;5;Chronos;0;0;971444;300;1;552;971996;0;5;Chronos;0;0;971744;0;1;252;971996;;;;;;;;;;;;;;;;;;;
EXP2.2_290421;1013;1;Chronos;<ChronosDeviceInfo><FriendlyName>MyChronos</FriendlyName><DeviceIndex>1</DeviceIndex><SerialNumber>CHR-04301-1186</SerialNumber><EBNVersion>3.0.3.80</EBNVersion><FirmwareVersion>1.33</FirmwareVersion><APIVersion>1.33</APIVersion><USBHostControllerVersion>2.0</USBHostControllerVersion><USBConnectionRoute>USB#ROOT_HUB20#4&9bd2e8a&0#{f18a0e88-c30c-11d0-8815-00a0c906bed8} + USB#VID_8087&PID_0024#5&3026c139&0&1#{f18a0e88-c30c-11d0-8815-00a0c906bed8}(1) + VID_2266&PID_0007(7)</USBConnectionRoute></ChronosDeviceInfo>;"<?xml version=""1.0""?>\n<Clock xmlns:dt=""urn:schemas-microsoft-com:datatypes""><Description dt:dt=""string"">E-Prime Primary Realtime Clock</Description><StartTime><Timestamp dt:dt=""int"">0</Timestamp><DateUtc dt:dt=""string"">2021-05-04T07:57:05Z</DateUtc></StartTime><FrequencyChanges><FrequencyChange><Frequency dt:dt=""r8"">2435576</Frequency><Timestamp dt:dt=""r8"">14212816147</Timestamp><Current dt:dt=""r8"">0</Current><DateUtc dt:dt=""string"">2021-05-04T07:57:05Z</DateUtc></FrequencyChange></FrequencyChanges></Clock>\n";EXP2.2_290421-1013-1;60.024;1.0.0.365;1;Chronos;1328350304;Full;3.0.3.80;3.0.3.80;05/04/2021;04/05/2021 07:57;09:57:06;3.0.3.82;2;Chronos;;2;1;2;TESTVV;Generalbloc;;;;pretest;Chronos;15;1;VV_290421/890.png;4;1;15;-10;blocVVstim;listVVTrial;;;;Chronos;0;;0;0;973510;200;;0;0;1;1;Chronos;0;0;973710;300;1;763;974473;1;1;Chronos;0;0;974010;0;1;463;974473;;;;;;;;;;;;;;;;;;;
EXP2.2_290421;1013;1;Chronos;<ChronosDeviceInfo><FriendlyName>MyChronos</FriendlyName><DeviceIndex>1</DeviceIndex><SerialNumber>CHR-04301-1186</SerialNumber><EBNVersion>3.0.3.80</EBNVersion><FirmwareVersion>1.33</FirmwareVersion><APIVersion>1.33</APIVersion><USBHostControllerVersion>2.0</USBHostControllerVersion><USBConnectionRoute>USB#ROOT_HUB20#4&9bd2e8a&0#{f18a0e88-c30c-11d0-8815-00a0c906bed8} + USB#VID_8087&PID_0024#5&3026c139&0&1#{f18a0e88-c30c-11d0-8815-00a0c906bed8}(1) + VID_2266&PID_0007(7)</USBConnectionRoute></ChronosDeviceInfo>;"<?xml version=""1.0""?>\n<Clock xmlns:dt=""urn:schemas-microsoft-com:datatypes""><Description dt:dt=""string"">E-Prime Primary Realtime Clock</Description><StartTime><Timestamp dt:dt=""int"">0</Timestamp><DateUtc dt:dt=""string"">2021-05-04T07:57:05Z</DateUtc></StartTime><FrequencyChanges><FrequencyChange><Frequency dt:dt=""r8"">2435576</Frequency><Timestamp dt:dt=""r8"">14212816147</Timestamp><Current dt:dt=""r8"">0</Current><DateUtc dt:dt=""string"">2021-05-04T07:57:05Z</DateUtc></FrequencyChange></FrequencyChanges></Clock>\n";EXP2.2_290421-1013-1;60.024;1.0.0.365;1;Chronos;1328350304;Full;3.0.3.80;3.0.3.80;05/04/2021;04/05/2021 07:57;09:57:06;3.0.3.82;2;Chronos;;2;1;2;TESTVV;Generalbloc;;;;pretest;Chronos;16;1;VV_290421/895.png;5;1;16;-5;blocVVstim;listVVTrial;;;;Chronos;0;;0;-1;975992;200;;0;0;1;1;Chronos;0;0;976192;300;1;794;976986;1;1;Chronos;0;0;976492;0;1;494;976986;;;;;;;;;;;;;;;;;;;
EXP2.2_290421;1013;1;Chronos;<ChronosDeviceInfo><FriendlyName>MyChronos</FriendlyName><DeviceIndex>1</DeviceIndex><SerialNumber>CHR-04301-1186</SerialNumber><EBNVersion>3.0.3.80</EBNVersion><FirmwareVersion>1.33</FirmwareVersion><APIVersion>1.33</APIVersion><USBHostControllerVersion>2.0</USBHostControllerVersion><USBConnectionRoute>USB#ROOT_HUB20#4&9bd2e8a&0#{f18a0e88-c30c-11d0-8815-00a0c906bed8} + USB#VID_8087&PID_0024#5&3026c139&0&1#{f18a0e88-c30c-11d0-8815-00a0c906bed8}(1) + VID_2266&PID_0007(7)</USBConnectionRoute></ChronosDeviceInfo>;"<?xml version=""1.0""?>\n<Clock xmlns:dt=""urn:schemas-microsoft-com:datatypes""><Description dt:dt=""string"">E-Prime Primary Realtime Clock</Description><StartTime><Timestamp dt:dt=""int"">0</Timestamp><DateUtc dt:dt=""string"">2021-05-04T07:57:05Z</DateUtc></StartTime><FrequencyChanges><FrequencyChange><Frequency dt:dt=""r8"">2435576</Frequency><Timestamp dt:dt=""r8"">14212816147</Timestamp><Current dt:dt=""r8"">0</Current><DateUtc dt:dt=""string"">2021-05-04T07:57:05Z</DateUtc></FrequencyChange></FrequencyChanges></Clock>\n";EXP2.2_290421-1013-1;60.024;1.0.0.365;1;Chronos;1328350304;Full;3.0.3.80;3.0.3.80;05/04/2021;04/05/2021 07:57;09:57:06;3.0.3.82;2;Chronos;;2;1;2;TESTVV;Generalbloc;;;;pretest;Chronos;17;1;VV_290421/890.png;4;1;17;-10;blocVVstim;listVVTrial;;;;Chronos;0;;0;0;978508;200;;0;0;1;1;Chronos;0;0;978708;300;1;808;979516;1;1;Chronos;0;0;979008;0;1;508;979516;;;;;;;;;;;;;;;;;;;
EXP2.2_290421;1013;1;Chronos;<ChronosDeviceInfo><FriendlyName>MyChronos</FriendlyName><DeviceIndex>1</DeviceIndex><SerialNumber>CHR-04301-1186</SerialNumber><EBNVersion>3.0.3.80</EBNVersion><FirmwareVersion>1.33</FirmwareVersion><APIVersion>1.33</APIVersion><USBHostControllerVersion>2.0</USBHostControllerVersion><USBConnectionRoute>USB#ROOT_HUB20#4&9bd2e8a&0#{f18a0e88-c30c-11d0-8815-00a0c906bed8} + USB#VID_8087&PID_0024#5&3026c139&0&1#{f18a0e88-c30c-11d0-8815-00a0c906bed8}(1) + VID_2266&PID_0007(7)</USBConnectionRoute></ChronosDeviceInfo>;"<?xml version=""1.0""?>\n<Clock xmlns:dt=""urn:schemas-microsoft-com:datatypes""><Description dt:dt=""string"">E-Prime Primary Realtime Clock</Description><StartTime><Timestamp dt:dt=""int"">0</Timestamp><DateUtc dt:dt=""string"">2021-05-04T07:57:05Z</DateUtc></StartTime><FrequencyChanges><FrequencyChange><Frequency dt:dt=""r8"">2435576</Frequency><Timestamp dt:dt=""r8"">14212816147</Timestamp><Current dt:dt=""r8"">0</Current><DateUtc dt:dt=""string"">2021-05-04T07:57:05Z</DateUtc></FrequencyChange></FrequencyChanges></Clock>\n";EXP2.2_290421-1013-1;60.024;1.0.0.365;1;Chronos;1328350304;Full;3.0.3.80;3.0.3.80;05/04/2021;04/05/2021 07:57;09:57:06;3.0.3.82;2;Chronos;;2;1;2;TESTVV;Generalbloc;;;;pretest;Chronos;18;1;VV_290421/880.png;2;1;18;-20;blocVVstim;listVVTrial;;;;Chronos;0;;0;-1;981040;200;;0;0;1;1;Chronos;0;0;981240;300;1;999;982239;1;1;Chronos;0;0;981540;0;1;699;982239;;;;;;;;;;;;;;;;;;;
EXP2.2_290421;1013;1;Chronos;<ChronosDeviceInfo><FriendlyName>MyChronos</FriendlyName><DeviceIndex>1</DeviceIndex><SerialNumber>CHR-04301-1186</SerialNumber><EBNVersion>3.0.3.80</EBNVersion><FirmwareVersion>1.33</FirmwareVersion><APIVersion>1.33</APIVersion><USBHostControllerVersion>2.0</USBHostControllerVersion><USBConnectionRoute>USB#ROOT_HUB20#4&9bd2e8a&0#{f18a0e88-c30c-11d0-8815-00a0c906bed8} + USB#VID_8087&PID_0024#5&3026c139&0&1#{f18a0e88-c30c-11d0-8815-00a0c906bed8}(1) + VID_2266&PID_0007(7)</USBConnectionRoute></ChronosDeviceInfo>;"<?xml version=""1.0""?>\n<Clock xmlns:dt=""urn:schemas-microsoft-com:datatypes""><Description dt:dt=""string"">E-Prime Primary Realtime Clock</Description><StartTime><Timestamp dt:dt=""int"">0</Timestamp><DateUtc dt:dt=""string"">2021-05-04T07:57:05Z</DateUtc></StartTime><FrequencyChanges><FrequencyChange><Frequency dt:dt=""r8"">2435576</Frequency><Timestamp dt:dt=""r8"">14212816147</Timestamp><Current dt:dt=""r8"">0</Current><DateUtc dt:dt=""string"">2021-05-04T07:57:05Z</DateUtc></FrequencyChange></FrequencyChanges></Clock>\n";EXP2.2_290421-1013-1;60.024;1.0.0.365;1;Chronos;1328350304;Full;3.0.3.80;3.0.3.80;05/04/2021;04/05/2021 07:57;09:57:06;3.0.3.82;2;Chronos;;2;1;2;TESTVV;Generalbloc;;;;pretest;Chronos;19;1;VV_290421/885.png;3;1;19;-15;blocVVstim;listVVTrial;;;;Chronos;0;;0;-1;983756;200;;0;0;1;1;Chronos;0;0;983956;300;1;977;984933;1;1;Chronos;0;0;984256;0;1;677;984933;;;;;;;;;;;;;;;;;;;
EXP2.2_290421;1013;1;Chronos;<ChronosDeviceInfo><FriendlyName>MyChronos</FriendlyName><DeviceIndex>1</DeviceIndex><SerialNumber>CHR-04301-1186</SerialNumber><EBNVersion>3.0.3.80</EBNVersion><FirmwareVersion>1.33</FirmwareVersion><APIVersion>1.33</APIVersion><USBHostControllerVersion>2.0</USBHostControllerVersion><USBConnectionRoute>USB#ROOT_HUB20#4&9bd2e8a&0#{f18a0e88-c30c-11d0-8815-00a0c906bed8} + USB#VID_8087&PID_0024#5&3026c139&0&1#{f18a0e88-c30c-11d0-8815-00a0c906bed8}(1) + VID_2266&PID_0007(7)</USBConnectionRoute></ChronosDeviceInfo>;"<?xml version=""1.0""?>\n<Clock xmlns:dt=""urn:schemas-microsoft-com:datatypes""><Description dt:dt=""string"">E-Prime Primary Realtime Clock</Description><StartTime><Timestamp dt:dt=""int"">0</Timestamp><DateUtc dt:dt=""string"">2021-05-04T07:57:05Z</DateUtc></StartTime><FrequencyChanges><FrequencyChange><Frequency dt:dt=""r8"">2435576</Frequency><Timestamp dt:dt=""r8"">14212816147</Timestamp><Current dt:dt=""r8"">0</Current><DateUtc dt:dt=""string"">2021-05-04T07:57:05Z</DateUtc></FrequencyChange></FrequencyChanges></Clock>\n";EXP2.2_290421-1013-1;60.024;1.0.0.365;1;Chronos;1328350304;Full;3.0.3.80;3.0.3.80;05/04/2021;04/05/2021 07:57;09:57:06;3.0.3.82;2;Chronos;;2;1;2;TESTVV;Generalbloc;;;;pretest;Chronos;20;5;VV_290421/925.png;11;1;20;25;blocVVstim;listVVTrial;;;;Chronos;0;;0;-1;986455;200;;0;0;1;5;Chronos;0;0;986655;300;5;802;987457;1;5;Chronos;0;0;986955;0;5;502;987457;;;;;;;;;;;;;;;;;;;
EXP2.2_290421;1013;1;Chronos;<ChronosDeviceInfo><FriendlyName>MyChronos</FriendlyName><DeviceIndex>1</DeviceIndex><SerialNumber>CHR-04301-1186</SerialNumber><EBNVersion>3.0.3.80</EBNVersion><FirmwareVersion>1.33</FirmwareVersion><APIVersion>1.33</APIVersion><USBHostControllerVersion>2.0</USBHostControllerVersion><USBConnectionRoute>USB#ROOT_HUB20#4&9bd2e8a&0#{f18a0e88-c30c-11d0-8815-00a0c906bed8} + USB#VID_8087&PID_0024#5&3026c139&0&1#{f18a0e88-c30c-11d0-8815-00a0c906bed8}(1) + VID_2266&PID_0007(7)</USBConnectionRoute></ChronosDeviceInfo>;"<?xml version=""1.0""?>\n<Clock xmlns:dt=""urn:schemas-microsoft-com:datatypes""><Description dt:dt=""string"">E-Prime Primary Realtime Clock</Description><StartTime><Timestamp dt:dt=""int"">0</Timestamp><DateUtc dt:dt=""string"">2021-05-04T07:57:05Z</DateUtc></StartTime><FrequencyChanges><FrequencyChange><Frequency dt:dt=""r8"">2435576</Frequency><Timestamp dt:dt=""r8"">14212816147</Timestamp><Current dt:dt=""r8"">0</Current><DateUtc dt:dt=""string"">2021-05-04T07:57:05Z</DateUtc></FrequencyChange></FrequencyChanges></Clock>\n";EXP2.2_290421-1013-1;60.024;1.0.0.365;1;Chronos;1328350304;Full;3.0.3.80;3.0.3.80;05/04/2021;04/05/2021 07:57;09:57:06;3.0.3.82;2;Chronos;;2;1;2;TESTVV;Generalbloc;;;;pretest;Chronos;21;1;VV_290421/875.png;1;1;21;-25;blocVVstim;listVVTrial;;;;Chronos;0;;0;0;988971;200;;0;0;1;1;Chronos;0;0;989171;300;1;458;989629;1;1;Chronos;0;0;989471;0;1;158;989629;;;;;;;;;;;;;;;;;;;
EXP2.2_290421;1013;1;Chronos;<ChronosDeviceInfo><FriendlyName>MyChronos</FriendlyName><DeviceIndex>1</DeviceIndex><SerialNumber>CHR-04301-1186</SerialNumber><EBNVersion>3.0.3.80</EBNVersion><FirmwareVersion>1.33</FirmwareVersion><APIVersion>1.33</APIVersion><USBHostControllerVersion>2.0</USBHostControllerVersion><USBConnectionRoute>USB#ROOT_HUB20#4&9bd2e8a&0#{f18a0e88-c30c-11d0-8815-00a0c906bed8} + USB#VID_8087&PID_0024#5&3026c139&0&1#{f18a0e88-c30c-11d0-8815-00a0c906bed8}(1) + VID_2266&PID_0007(7)</USBConnectionRoute></ChronosDeviceInfo>;"<?xml version=""1.0""?>\n<Clock xmlns:dt=""urn:schemas-microsoft-com:datatypes""><Description dt:dt=""string"">E-Prime Primary Realtime Clock</Description><StartTime><Timestamp dt:dt=""int"">0</Timestamp><DateUtc dt:dt=""string"">2021-05-04T07:57:05Z</DateUtc></StartTime><FrequencyChanges><FrequencyChange><Frequency dt:dt=""r8"">2435576</Frequency><Timestamp dt:dt=""r8"">14212816147</Timestamp><Current dt:dt=""r8"">0</Current><DateUtc dt:dt=""string"">2021-05-04T07:57:05Z</DateUtc></FrequencyChange></FrequencyChanges></Clock>\n";EXP2.2_290421-1013-1;60.024;1.0.0.365;1;Chronos;1328350304;Full;3.0.3.80;3.0.3.80;05/04/2021;04/05/2021 07:57;09:57:06;3.0.3.82;2;Chronos;;2;1;2;TESTVV;Generalbloc;;;;pretest;Chronos;22;1;VV_290421/895.png;5;1;22;-5;blocVVstim;listVVTrial;;;;Chronos;0;;0;-1;991153;200;;0;0;1;1;Chronos;0;0;991353;300;1;497;991850;1;1;Chronos;0;0;991653;0;1;197;991850;;;;;;;;;;;;;;;;;;;
EXP2.2_290421;1013;1;Chronos;<ChronosDeviceInfo><FriendlyName>MyChronos</FriendlyName><DeviceIndex>1</DeviceIndex><SerialNumber>CHR-04301-1186</SerialNumber><EBNVersion>3.0.3.80</EBNVersion><FirmwareVersion>1.33</FirmwareVersion><APIVersion>1.33</APIVersion><USBHostControllerVersion>2.0</USBHostControllerVersion><USBConnectionRoute>USB#ROOT_HUB20#4&9bd2e8a&0#{f18a0e88-c30c-11d0-8815-00a0c906bed8} + USB#VID_8087&PID_0024#5&3026c139&0&1#{f18a0e88-c30c-11d0-8815-00a0c906bed8}(1) + VID_2266&PID_0007(7)</USBConnectionRoute></ChronosDeviceInfo>;"<?xml version=""1.0""?>\n<Clock xmlns:dt=""urn:schemas-microsoft-com:datatypes""><Description dt:dt=""string"">E-Prime Primary Realtime Clock</Description><StartTime><Timestamp dt:dt=""int"">0</Timestamp><DateUtc dt:dt=""string"">2021-05-04T07:57:05Z</DateUtc></StartTime><FrequencyChanges><FrequencyChange><Frequency dt:dt=""r8"">2435576</Frequency><Timestamp dt:dt=""r8"">14212816147</Timestamp><Current dt:dt=""r8"">0</Current><DateUtc dt:dt=""string"">2021-05-04T07:57:05Z</DateUtc></FrequencyChange></FrequencyChanges></Clock>\n";EXP2.2_290421-1013-1;60.024;1.0.0.365;1;Chronos;1328350304;Full;3.0.3.80;3.0.3.80;05/04/2021;04/05/2021 07:57;09:57:06;3.0.3.82;2;Chronos;;2;1;2;TESTVV;Generalbloc;;;;pretest;Chronos;23;1;VV_290421/890.png;4;1;23;-10;blocVVstim;listVVTrial;;;;Chronos;0;;0;-1;993369;200;;0;0;1;1;Chronos;0;0;993569;300;1;600;994169;1;1;Chronos;0;0;993869;0;1;300;994169;;;;;;;;;;;;;;;;;;;
EXP2.2_290421;1013;1;Chronos;<ChronosDeviceInfo><FriendlyName>MyChronos</FriendlyName><DeviceIndex>1</DeviceIndex><SerialNumber>CHR-04301-1186</SerialNumber><EBNVersion>3.0.3.80</EBNVersion><FirmwareVersion>1.33</FirmwareVersion><APIVersion>1.33</APIVersion><USBHostControllerVersion>2.0</USBHostControllerVersion><USBConnectionRoute>USB#ROOT_HUB20#4&9bd2e8a&0#{f18a0e88-c30c-11d0-8815-00a0c906bed8} + USB#VID_8087&PID_0024#5&3026c139&0&1#{f18a0e88-c30c-11d0-8815-00a0c906bed8}(1) + VID_2266&PID_0007(7)</USBConnectionRoute></ChronosDeviceInfo>;"<?xml version=""1.0""?>\n<Clock xmlns:dt=""urn:schemas-microsoft-com:datatypes""><Description dt:dt=""string"">E-Prime Primary Realtime Clock</Description><StartTime><Timestamp dt:dt=""int"">0</Timestamp><DateUtc dt:dt=""string"">2021-05-04T07:57:05Z</DateUtc></StartTime><FrequencyChanges><FrequencyChange><Frequency dt:dt=""r8"">2435576</Frequency><Timestamp dt:dt=""r8"">14212816147</Timestamp><Current dt:dt=""r8"">0</Current><DateUtc dt:dt=""string"">2021-05-04T07:57:05Z</DateUtc></FrequencyChange></FrequencyChanges></Clock>\n";EXP2.2_290421-1013-1;60.024;1.0.0.365;1;Chronos;1328350304;Full;3.0.3.80;3.0.3.80;05/04/2021;04/05/2021 07:57;09:57:06;3.0.3.82;2;Chronos;;2;1;2;TESTVV;Generalbloc;;;;pretest;Chronos;24;5;VV_290421/910.png;8;1;24;10;blocVVstim;listVVTrial;;;;Chronos;0;;0;0;995685;200;;0;0;1;5;Chronos;0;0;995885;300;5;944;996829;1;5;Chronos;0;0;996185;0;5;644;996829;;;;;;;;;;;;;;;;;;;
EXP2.2_290421;1013;1;Chronos;<ChronosDeviceInfo><FriendlyName>MyChronos</FriendlyName><DeviceIndex>1</DeviceIndex><SerialNumber>CHR-04301-1186</SerialNumber><EBNVersion>3.0.3.80</EBNVersion><FirmwareVersion>1.33</FirmwareVersion><APIVersion>1.33</APIVersion><USBHostControllerVersion>2.0</USBHostControllerVersion><USBConnectionRoute>USB#ROOT_HUB20#4&9bd2e8a&0#{f18a0e88-c30c-11d0-8815-00a0c906bed8} + USB#VID_8087&PID_0024#5&3026c139&0&1#{f18a0e88-c30c-11d0-8815-00a0c906bed8}(1) + VID_2266&PID_0007(7)</USBConnectionRoute></ChronosDeviceInfo>;"<?xml version=""1.0""?>\n<Clock xmlns:dt=""urn:schemas-microsoft-com:datatypes""><Description dt:dt=""string"">E-Prime Primary Realtime Clock</Description><StartTime><Timestamp dt:dt=""int"">0</Timestamp><DateUtc dt:dt=""string"">2021-05-04T07:57:05Z</DateUtc></StartTime><FrequencyChanges><FrequencyChange><Frequency dt:dt=""r8"">2435576</Frequency><Timestamp dt:dt=""r8"">14212816147</Timestamp><Current dt:dt=""r8"">0</Current><DateUtc dt:dt=""string"">2021-05-04T07:57:05Z</DateUtc></FrequencyChange></FrequencyChanges></Clock>\n";EXP2.2_290421-1013-1;60.024;1.0.0.365;1;Chronos;1328350304;Full;3.0.3.80;3.0.3.80;05/04/2021;04/05/2021 07:57;09:57:06;3.0.3.82;2;Chronos;;2;1;2;TESTVV;Generalbloc;;;;pretest;Chronos;25;5;VV_290421/910.png;8;1;25;10;blocVVstim;listVVTrial;;;;Chronos;0;;0;0;998351;199;;0;0;0;5;Chronos;1;-1;998550;300;1;750;999300;0;5;Chronos;0;0;998850;0;1;450;999300;;;;;;;;;;;;;;;;;;;
EXP2.2_290421;1013;1;Chronos;<ChronosDeviceInfo><FriendlyName>MyChronos</FriendlyName><DeviceIndex>1</DeviceIndex><SerialNumber>CHR-04301-1186</SerialNumber><EBNVersion>3.0.3.80</EBNVersion><FirmwareVersion>1.33</FirmwareVersion><APIVersion>1.33</APIVersion><USBHostControllerVersion>2.0</USBHostControllerVersion><USBConnectionRoute>USB#ROOT_HUB20#4&9bd2e8a&0#{f18a0e88-c30c-11d0-8815-00a0c906bed8} + USB#VID_8087&PID_0024#5&3026c139&0&1#{f18a0e88-c30c-11d0-8815-00a0c906bed8}(1) + VID_2266&PID_0007(7)</USBConnectionRoute></ChronosDeviceInfo>;"<?xml version=""1.0""?>\n<Clock xmlns:dt=""urn:schemas-microsoft-com:datatypes""><Description dt:dt=""string"">E-Prime Primary Realtime Clock</Description><StartTime><Timestamp dt:dt=""int"">0</Timestamp><DateUtc dt:dt=""string"">2021-05-04T07:57:05Z</DateUtc></StartTime><FrequencyChanges><FrequencyChange><Frequency dt:dt=""r8"">2435576</Frequency><Timestamp dt:dt=""r8"">14212816147</Timestamp><Current dt:dt=""r8"">0</Current><DateUtc dt:dt=""string"">2021-05-04T07:57:05Z</DateUtc></FrequencyChange></FrequencyChanges></Clock>\n";EXP2.2_290421-1013-1;60.024;1.0.0.365;1;Chronos;1328350304;Full;3.0.3.80;3.0.3.80;05/04/2021;04/05/2021 07:57;09:57:06;3.0.3.82;2;Chronos;;2;1;2;TESTVV;Generalbloc;;;;pretest;Chronos;26;5;VV_290421/915.png;9;1;26;15;blocVVstim;listVVTrial;;;;Chronos;0;;0;-1;1000816;200;;0;0;1;5;Chronos;0;0;1001016;300;5;665;1001681;1;5;Chronos;0;0;1001316;0;5;365;1001681;;;;;;;;;;;;;;;;;;;
EXP2.2_290421;1013;1;Chronos;<ChronosDeviceInfo><FriendlyName>MyChronos</FriendlyName><DeviceIndex>1</DeviceIndex><SerialNumber>CHR-04301-1186</SerialNumber><EBNVersion>3.0.3.80</EBNVersion><FirmwareVersion>1.33</FirmwareVersion><APIVersion>1.33</APIVersion><USBHostControllerVersion>2.0</USBHostControllerVersion><USBConnectionRoute>USB#ROOT_HUB20#4&9bd2e8a&0#{f18a0e88-c30c-11d0-8815-00a0c906bed8} + USB#VID_8087&PID_0024#5&3026c139&0&1#{f18a0e88-c30c-11d0-8815-00a0c906bed8}(1) + VID_2266&PID_0007(7)</USBConnectionRoute></ChronosDeviceInfo>;"<?xml version=""1.0""?>\n<Clock xmlns:dt=""urn:schemas-microsoft-com:datatypes""><Description dt:dt=""string"">E-Prime Primary Realtime Clock</Description><StartTime><Timestamp dt:dt=""int"">0</Timestamp><DateUtc dt:dt=""string"">2021-05-04T07:57:05Z</DateUtc></StartTime><FrequencyChanges><FrequencyChange><Frequency dt:dt=""r8"">2435576</Frequency><Timestamp dt:dt=""r8"">14212816147</Timestamp><Current dt:dt=""r8"">0</Current><DateUtc dt:dt=""string"">2021-05-04T07:57:05Z</DateUtc></FrequencyChange></FrequencyChanges></Clock>\n";EXP2.2_290421-1013-1;60.024;1.0.0.365;1;Chronos;1328350304;Full;3.0.3.80;3.0.3.80;05/04/2021;04/05/2021 07:57;09:57:06;3.0.3.82;2;Chronos;;2;1;2;TESTVV;Generalbloc;;;;pretest;Chronos;27;5;VV_290421/920.png;10;1;27;20;blocVVstim;listVVTrial;;;;Chronos;0;;0;0;1003199;200;;0;0;1;5;Chronos;0;0;1003399;300;5;650;1004049;1;5;Chronos;0;0;1003699;0;5;350;1004049;;;;;;;;;;;;;;;;;;;
EXP2.2_290421;1013;1;Chronos;<ChronosDeviceInfo><FriendlyName>MyChronos</FriendlyName><DeviceIndex>1</DeviceIndex><SerialNumber>CHR-04301-1186</SerialNumber><EBNVersion>3.0.3.80</EBNVersion><FirmwareVersion>1.33</FirmwareVersion><APIVersion>1.33</APIVersion><USBHostControllerVersion>2.0</USBHostControllerVersion><USBConnectionRoute>USB#ROOT_HUB20#4&9bd2e8a&0#{f18a0e88-c30c-11d0-8815-00a0c906bed8} + USB#VID_8087&PID_0024#5&3026c139&0&1#{f18a0e88-c30c-11d0-8815-00a0c906bed8}(1) + VID_2266&PID_0007(7)</USBConnectionRoute></ChronosDeviceInfo>;"<?xml version=""1.0""?>\n<Clock xmlns:dt=""urn:schemas-microsoft-com:datatypes""><Description dt:dt=""string"">E-Prime Primary Realtime Clock</Description><StartTime><Timestamp dt:dt=""int"">0</Timestamp><DateUtc dt:dt=""string"">2021-05-04T07:57:05Z</DateUtc></StartTime><FrequencyChanges><FrequencyChange><Frequency dt:dt=""r8"">2435576</Frequency><Timestamp dt:dt=""r8"">14212816147</Timestamp><Current dt:dt=""r8"">0</Current><DateUtc dt:dt=""string"">2021-05-04T07:57:05Z</DateUtc></FrequencyChange></FrequencyChanges></Clock>\n";EXP2.2_290421-1013-1;60.024;1.0.0.365;1;Chronos;1328350304;Full;3.0.3.80;3.0.3.80;05/04/2021;04/05/2021 07:57;09:57:06;3.0.3.82;2;Chronos;;2;1;2;TESTVV;Generalbloc;;;;pretest;Chronos;28;1;VV_290421/880.png;2;1;28;-20;blocVVstim;listVVTrial;;;;Chronos;0;;0;0;1005565;199;;0;0;1;1;Chronos;1;-1;1005764;300;1;485;1006249;1;1;Chronos;1;0;1006064;0;1;185;1006249;;;;;;;;;;;;;;;;;;;
EXP2.2_290421;1013;1;Chronos;<ChronosDeviceInfo><FriendlyName>MyChronos</FriendlyName><DeviceIndex>1</DeviceIndex><SerialNumber>CHR-04301-1186</SerialNumber><EBNVersion>3.0.3.80</EBNVersion><FirmwareVersion>1.33</FirmwareVersion><APIVersion>1.33</APIVersion><USBHostControllerVersion>2.0</USBHostControllerVersion><USBConnectionRoute>USB#ROOT_HUB20#4&9bd2e8a&0#{f18a0e88-c30c-11d0-8815-00a0c906bed8} + USB#VID_8087&PID_0024#5&3026c139&0&1#{f18a0e88-c30c-11d0-8815-00a0c906bed8}(1) + VID_2266&PID_0007(7)</USBConnectionRoute></ChronosDeviceInfo>;"<?xml version=""1.0""?>\n<Clock xmlns:dt=""urn:schemas-microsoft-com:datatypes""><Description dt:dt=""string"">E-Prime Primary Realtime Clock</Description><StartTime><Timestamp dt:dt=""int"">0</Timestamp><DateUtc dt:dt=""string"">2021-05-04T07:57:05Z</DateUtc></StartTime><FrequencyChanges><FrequencyChange><Frequency dt:dt=""r8"">2435576</Frequency><Timestamp dt:dt=""r8"">14212816147</Timestamp><Current dt:dt=""r8"">0</Current><DateUtc dt:dt=""string"">2021-05-04T07:57:05Z</DateUtc></FrequencyChange></FrequencyChanges></Clock>\n";EXP2.2_290421-1013-1;60.024;1.0.0.365;1;Chronos;1328350304;Full;3.0.3.80;3.0.3.80;05/04/2021;04/05/2021 07:57;09:57:06;3.0.3.82;2;Chronos;;2;1;2;TESTVV;Generalbloc;;;;pretest;Chronos;29;1;VV_290421/880.png;2;1;29;-20;blocVVstim;listVVTrial;;;;Chronos;0;;0;0;1007764;200;;0;0;1;1;Chronos;0;0;1007964;300;1;556;1008520;1;1;Chronos;0;0;1008264;0;1;256;1008520;;;;;;;;;;;;;;;;;;;
EXP2.2_290421;1013;1;Chronos;<ChronosDeviceInfo><FriendlyName>MyChronos</FriendlyName><DeviceIndex>1</DeviceIndex><SerialNumber>CHR-04301-1186</SerialNumber><EBNVersion>3.0.3.80</EBNVersion><FirmwareVersion>1.33</FirmwareVersion><APIVersion>1.33</APIVersion><USBHostControllerVersion>2.0</USBHostControllerVersion><USBConnectionRoute>USB#ROOT_HUB20#4&9bd2e8a&0#{f18a0e88-c30c-11d0-8815-00a0c906bed8} + USB#VID_8087&PID_0024#5&3026c139&0&1#{f18a0e88-c30c-11d0-8815-00a0c906bed8}(1) + VID_2266&PID_0007(7)</USBConnectionRoute></ChronosDeviceInfo>;"<?xml version=""1.0""?>\n<Clock xmlns:dt=""urn:schemas-microsoft-com:datatypes""><Description dt:dt=""string"">E-Prime Primary Realtime Clock</Description><StartTime><Timestamp dt:dt=""int"">0</Timestamp><DateUtc dt:dt=""string"">2021-05-04T07:57:05Z</DateUtc></StartTime><FrequencyChanges><FrequencyChange><Frequency dt:dt=""r8"">2435576</Frequency><Timestamp dt:dt=""r8"">14212816147</Timestamp><Current dt:dt=""r8"">0</Current><DateUtc dt:dt=""string"">2021-05-04T07:57:05Z</DateUtc></FrequencyChange></FrequencyChanges></Clock>\n";EXP2.2_290421-1013-1;60.024;1.0.0.365;1;Chronos;1328350304;Full;3.0.3.80;3.0.3.80;05/04/2021;04/05/2021 07:57;09:57:06;3.0.3.82;2;Chronos;;2;1;2;TESTVV;Generalbloc;;;;pretest;Chronos;30;15;VV_290421/900.png;6;1;30;0;blocVVstim;listVVTrial;;;;Chronos;0;;0;-1;1010046;200;;0;0;0;15;Chronos;0;0;1010246;300;5;611;1010857;0;15;Chronos;0;0;1010546;0;5;311;1010857;;;;;;;;;;;;;;;;;;;
EXP2.2_290421;1013;1;Chronos;<ChronosDeviceInfo><FriendlyName>MyChronos</FriendlyName><DeviceIndex>1</DeviceIndex><SerialNumber>CHR-04301-1186</SerialNumber><EBNVersion>3.0.3.80</EBNVersion><FirmwareVersion>1.33</FirmwareVersion><APIVersion>1.33</APIVersion><USBHostControllerVersion>2.0</USBHostControllerVersion><USBConnectionRoute>USB#ROOT_HUB20#4&9bd2e8a&0#{f18a0e88-c30c-11d0-8815-00a0c906bed8} + USB#VID_8087&PID_0024#5&3026c139&0&1#{f18a0e88-c30c-11d0-8815-00a0c906bed8}(1) + VID_2266&PID_0007(7)</USBConnectionRoute></ChronosDeviceInfo>;"<?xml version=""1.0""?>\n<Clock xmlns:dt=""urn:schemas-microsoft-com:datatypes""><Description dt:dt=""string"">E-Prime Primary Realtime Clock</Description><StartTime><Timestamp dt:dt=""int"">0</Timestamp><DateUtc dt:dt=""string"">2021-05-04T07:57:05Z</DateUtc></StartTime><FrequencyChanges><FrequencyChange><Frequency dt:dt=""r8"">2435576</Frequency><Timestamp dt:dt=""r8"">14212816147</Timestamp><Current dt:dt=""r8"">0</Current><DateUtc dt:dt=""string"">2021-05-04T07:57:05Z</DateUtc></FrequencyChange></FrequencyChanges></Clock>\n";EXP2.2_290421-1013-1;60.024;1.0.0.365;1;Chronos;1328350304;Full;3.0.3.80;3.0.3.80;05/04/2021;04/05/2021 07:57;09:57:06;3.0.3.82;2;Chronos;;2;1;2;TESTVV;Generalbloc;;;;pretest;Chronos;31;1;VV_290421/885.png;3;1;31;-15;blocVVstim;listVVTrial;;;;Chronos;0;;0;0;1012379;200;;0;0;0;1;Chronos;0;0;1012579;299;5;902;1013481;0;1;Chronos;1;-1;1012878;0;5;603;1013481;;;;;;;;;;;;;;;;;;;
EXP2.2_290421;1013;1;Chronos;<ChronosDeviceInfo><FriendlyName>MyChronos</FriendlyName><DeviceIndex>1</DeviceIndex><SerialNumber>CHR-04301-1186</SerialNumber><EBNVersion>3.0.3.80</EBNVersion><FirmwareVersion>1.33</FirmwareVersion><APIVersion>1.33</APIVersion><USBHostControllerVersion>2.0</USBHostControllerVersion><USBConnectionRoute>USB#ROOT_HUB20#4&9bd2e8a&0#{f18a0e88-c30c-11d0-8815-00a0c906bed8} + USB#VID_8087&PID_0024#5&3026c139&0&1#{f18a0e88-c30c-11d0-8815-00a0c906bed8}(1) + VID_2266&PID_0007(7)</USBConnectionRoute></ChronosDeviceInfo>;"<?xml version=""1.0""?>\n<Clock xmlns:dt=""urn:schemas-microsoft-com:datatypes""><Description dt:dt=""string"">E-Prime Primary Realtime Clock</Description><StartTime><Timestamp dt:dt=""int"">0</Timestamp><DateUtc dt:dt=""string"">2021-05-04T07:57:05Z</DateUtc></StartTime><FrequencyChanges><FrequencyChange><Frequency dt:dt=""r8"">2435576</Frequency><Timestamp dt:dt=""r8"">14212816147</Timestamp><Current dt:dt=""r8"">0</Current><DateUtc dt:dt=""string"">2021-05-04T07:57:05Z</DateUtc></FrequencyChange></FrequencyChanges></Clock>\n";EXP2.2_290421-1013-1;60.024;1.0.0.365;1;Chronos;1328350304;Full;3.0.3.80;3.0.3.80;05/04/2021;04/05/2021 07:57;09:57:06;3.0.3.82;2;Chronos;;2;1;2;TESTVV;Generalbloc;;;;pretest;Chronos;32;1;VV_290421/885.png;3;1;32;-15;blocVVstim;listVVTrial;;;;Chronos;0;;0;-1;1015011;200;;0;0;1;1;Chronos;0;0;1015211;300;1;650;1015861;1;1;Chronos;0;0;1015511;0;1;350;1015861;;;;;;;;;;;;;;;;;;;
EXP2.2_290421;1013;1;Chronos;<ChronosDeviceInfo><FriendlyName>MyChronos</FriendlyName><DeviceIndex>1</DeviceIndex><SerialNumber>CHR-04301-1186</SerialNumber><EBNVersion>3.0.3.80</EBNVersion><FirmwareVersion>1.33</FirmwareVersion><APIVersion>1.33</APIVersion><USBHostControllerVersion>2.0</USBHostControllerVersion><USBConnectionRoute>USB#ROOT_HUB20#4&9bd2e8a&0#{f18a0e88-c30c-11d0-8815-00a0c906bed8} + USB#VID_8087&PID_0024#5&3026c139&0&1#{f18a0e88-c30c-11d0-8815-00a0c906bed8}(1) + VID_2266&PID_0007(7)</USBConnectionRoute></ChronosDeviceInfo>;"<?xml version=""1.0""?>\n<Clock xmlns:dt=""urn:schemas-microsoft-com:datatypes""><Description dt:dt=""string"">E-Prime Primary Realtime Clock</Description><StartTime><Timestamp dt:dt=""int"">0</Timestamp><DateUtc dt:dt=""string"">2021-05-04T07:57:05Z</DateUtc></StartTime><FrequencyChanges><FrequencyChange><Frequency dt:dt=""r8"">2435576</Frequency><Timestamp dt:dt=""r8"">14212816147</Timestamp><Current dt:dt=""r8"">0</Current><DateUtc dt:dt=""string"">2021-05-04T07:57:05Z</DateUtc></FrequencyChange></FrequencyChanges></Clock>\n";EXP2.2_290421-1013-1;60.024;1.0.0.365;1;Chronos;1328350304;Full;3.0.3.80;3.0.3.80;05/04/2021;04/05/2021 07:57;09:57:06;3.0.3.82;2;Chronos;;2;1;2;TESTVV;Generalbloc;;;;pretest;Chronos;33;5;VV_290421/905.png;7;1;33;5;blocVVstim;listVVTrial;;;;Chronos;0;;0;0;1017377;200;;0;0;0;5;Chronos;0;0;1017577;300;1;845;1018422;0;5;Chronos;0;0;1017877;0;1;545;1018422;;;;;;;;;;;;;;;;;;;
EXP2.2_290421;1013;1;Chronos;<ChronosDeviceInfo><FriendlyName>MyChronos</FriendlyName><DeviceIndex>1</DeviceIndex><SerialNumber>CHR-04301-1186</SerialNumber><EBNVersion>3.0.3.80</EBNVersion><FirmwareVersion>1.33</FirmwareVersion><APIVersion>1.33</APIVersion><USBHostControllerVersion>2.0</USBHostControllerVersion><USBConnectionRoute>USB#ROOT_HUB20#4&9bd2e8a&0#{f18a0e88-c30c-11d0-8815-00a0c906bed8} + USB#VID_8087&PID_0024#5&3026c139&0&1#{f18a0e88-c30c-11d0-8815-00a0c906bed8}(1) + VID_2266&PID_0007(7)</USBConnectionRoute></ChronosDeviceInfo>;"<?xml version=""1.0""?>\n<Clock xmlns:dt=""urn:schemas-microsoft-com:datatypes""><Description dt:dt=""string"">E-Prime Primary Realtime Clock</Description><StartTime><Timestamp dt:dt=""int"">0</Timestamp><DateUtc dt:dt=""string"">2021-05-04T07:57:05Z</DateUtc></StartTime><FrequencyChanges><FrequencyChange><Frequency dt:dt=""r8"">2435576</Frequency><Timestamp dt:dt=""r8"">14212816147</Timestamp><Current dt:dt=""r8"">0</Current><DateUtc dt:dt=""string"">2021-05-04T07:57:05Z</DateUtc></FrequencyChange></FrequencyChanges></Clock>\n";EXP2.2_290421-1013-1;60.024;1.0.0.365;1;Chronos;1328350304;Full;3.0.3.80;3.0.3.80;05/04/2021;04/05/2021 07:57;09:57:06;3.0.3.82;2;Chronos;;2;1;2;TESTVV;Generalbloc;;;;pretest;Chronos;34;1;VV_290421/890.png;4;1;34;-10;blocVVstim;listVVTrial;;;;Chronos;0;;1;-1;1019942;200;;0;0;1;1;Chronos;1;0;1020142;300;1;450;1020592;1;1;Chronos;0;0;1020442;0;1;150;1020592;;;;;;;;;;;;;;;;;;;
EXP2.2_290421;1013;1;Chronos;<ChronosDeviceInfo><FriendlyName>MyChronos</FriendlyName><DeviceIndex>1</DeviceIndex><SerialNumber>CHR-04301-1186</SerialNumber><EBNVersion>3.0.3.80</EBNVersion><FirmwareVersion>1.33</FirmwareVersion><APIVersion>1.33</APIVersion><USBHostControllerVersion>2.0</USBHostControllerVersion><USBConnectionRoute>USB#ROOT_HUB20#4&9bd2e8a&0#{f18a0e88-c30c-11d0-8815-00a0c906bed8} + USB#VID_8087&PID_0024#5&3026c139&0&1#{f18a0e88-c30c-11d0-8815-00a0c906bed8}(1) + VID_2266&PID_0007(7)</USBConnectionRoute></ChronosDeviceInfo>;"<?xml version=""1.0""?>\n<Clock xmlns:dt=""urn:schemas-microsoft-com:datatypes""><Description dt:dt=""string"">E-Prime Primary Realtime Clock</Description><StartTime><Timestamp dt:dt=""int"">0</Timestamp><DateUtc dt:dt=""string"">2021-05-04T07:57:05Z</DateUtc></StartTime><FrequencyChanges><FrequencyChange><Frequency dt:dt=""r8"">2435576</Frequency><Timestamp dt:dt=""r8"">14212816147</Timestamp><Current dt:dt=""r8"">0</Current><DateUtc dt:dt=""string"">2021-05-04T07:57:05Z</DateUtc></FrequencyChange></FrequencyChanges></Clock>\n";EXP2.2_290421-1013-1;60.024;1.0.0.365;1;Chronos;1328350304;Full;3.0.3.80;3.0.3.80;05/04/2021;04/05/2021 07:57;09:57:06;3.0.3.82;2;Chronos;;2;1;2;TESTVV;Generalbloc;;;;pretest;Chronos;35;5;VV_290421/905.png;7;1;35;5;blocVVstim;listVVTrial;;;;Chronos;0;;0;-1;1022108;200;;0;0;0;5;Chronos;0;0;1022308;300;1;403;1022711;0;5;Chronos;0;0;1022608;0;1;103;1022711;;;;;;;;;;;;;;;;;;;
EXP2.2_290421;1013;1;Chronos;<ChronosDeviceInfo><FriendlyName>MyChronos</FriendlyName><DeviceIndex>1</DeviceIndex><SerialNumber>CHR-04301-1186</SerialNumber><EBNVersion>3.0.3.80</EBNVersion><FirmwareVersion>1.33</FirmwareVersion><APIVersion>1.33</APIVersion><USBHostControllerVersion>2.0</USBHostControllerVersion><USBConnectionRoute>USB#ROOT_HUB20#4&9bd2e8a&0#{f18a0e88-c30c-11d0-8815-00a0c906bed8} + USB#VID_8087&PID_0024#5&3026c139&0&1#{f18a0e88-c30c-11d0-8815-00a0c906bed8}(1) + VID_2266&PID_0007(7)</USBConnectionRoute></ChronosDeviceInfo>;"<?xml version=""1.0""?>\n<Clock xmlns:dt=""urn:schemas-microsoft-com:datatypes""><Description dt:dt=""string"">E-Prime Primary Realtime Clock</Description><StartTime><Timestamp dt:dt=""int"">0</Timestamp><DateUtc dt:dt=""string"">2021-05-04T07:57:05Z</DateUtc></StartTime><FrequencyChanges><FrequencyChange><Frequency dt:dt=""r8"">2435576</Frequency><Timestamp dt:dt=""r8"">14212816147</Timestamp><Current dt:dt=""r8"">0</Current><DateUtc dt:dt=""string"">2021-05-04T07:57:05Z</DateUtc></FrequencyChange></FrequencyChanges></Clock>\n";EXP2.2_290421-1013-1;60.024;1.0.0.365;1;Chronos;1328350304;Full;3.0.3.80;3.0.3.80;05/04/2021;04/05/2021 07:57;09:57:06;3.0.3.82;2;Chronos;;2;1;2;TESTVV;Generalbloc;;;;pretest;Chronos;36;1;VV_290421/875.png;1;1;36;-25;blocVVstim;listVVTrial;;;;Chronos;0;;0;-1;1024224;200;;0;0;1;1;Chronos;0;0;1024424;300;1;430;1024854;1;1;Chronos;0;0;1024724;0;1;130;1024854;;;;;;;;;;;;;;;;;;;
EXP2.2_290421;1013;1;Chronos;<ChronosDeviceInfo><FriendlyName>MyChronos</FriendlyName><DeviceIndex>1</DeviceIndex><SerialNumber>CHR-04301-1186</SerialNumber><EBNVersion>3.0.3.80</EBNVersion><FirmwareVersion>1.33</FirmwareVersion><APIVersion>1.33</APIVersion><USBHostControllerVersion>2.0</USBHostControllerVersion><USBConnectionRoute>USB#ROOT_HUB20#4&9bd2e8a&0#{f18a0e88-c30c-11d0-8815-00a0c906bed8} + USB#VID_8087&PID_0024#5&3026c139&0&1#{f18a0e88-c30c-11d0-8815-00a0c906bed8}(1) + VID_2266&PID_0007(7)</USBConnectionRoute></ChronosDeviceInfo>;"<?xml version=""1.0""?>\n<Clock xmlns:dt=""urn:schemas-microsoft-com:datatypes""><Description dt:dt=""string"">E-Prime Primary Realtime Clock</Description><StartTime><Timestamp dt:dt=""int"">0</Timestamp><DateUtc dt:dt=""string"">2021-05-04T07:57:05Z</DateUtc></StartTime><FrequencyChanges><FrequencyChange><Frequency dt:dt=""r8"">2435576</Frequency><Timestamp dt:dt=""r8"">14212816147</Timestamp><Current dt:dt=""r8"">0</Current><DateUtc dt:dt=""string"">2021-05-04T07:57:05Z</DateUtc></FrequencyChange></FrequencyChanges></Clock>\n";EXP2.2_290421-1013-1;60.024;1.0.0.365;1;Chronos;1328350304;Full;3.0.3.80;3.0.3.80;05/04/2021;04/05/2021 07:57;09:57:06;3.0.3.82;2;Chronos;;2;1;2;TESTVV;Generalbloc;;;;pretest;Chronos;37;5;VV_290421/910.png;8;1;37;10;blocVVstim;listVVTrial;;;;Chronos;0;;1;-1;1026373;200;;0;0;1;5;Chronos;0;0;1026573;300;5;608;1027181;1;5;Chronos;0;0;1026873;0;5;308;1027181;;;;;;;;;;;;;;;;;;;
EXP2.2_290421;1013;1;Chronos;<ChronosDeviceInfo><FriendlyName>MyChronos</FriendlyName><DeviceIndex>1</DeviceIndex><SerialNumber>CHR-04301-1186</SerialNumber><EBNVersion>3.0.3.80</EBNVersion><FirmwareVersion>1.33</FirmwareVersion><APIVersion>1.33</APIVersion><USBHostControllerVersion>2.0</USBHostControllerVersion><USBConnectionRoute>USB#ROOT_HUB20#4&9bd2e8a&0#{f18a0e88-c30c-11d0-8815-00a0c906bed8} + USB#VID_8087&PID_0024#5&3026c139&0&1#{f18a0e88-c30c-11d0-8815-00a0c906bed8}(1) + VID_2266&PID_0007(7)</USBConnectionRoute></ChronosDeviceInfo>;"<?xml version=""1.0""?>\n<Clock xmlns:dt=""urn:schemas-microsoft-com:datatypes""><Description dt:dt=""string"">E-Prime Primary Realtime Clock</Description><StartTime><Timestamp dt:dt=""int"">0</Timestamp><DateUtc dt:dt=""string"">2021-05-04T07:57:05Z</DateUtc></StartTime><FrequencyChanges><FrequencyChange><Frequency dt:dt=""r8"">2435576</Frequency><Timestamp dt:dt=""r8"">14212816147</Timestamp><Current dt:dt=""r8"">0</Current><DateUtc dt:dt=""string"">2021-05-04T07:57:05Z</DateUtc></FrequencyChange></FrequencyChanges></Clock>\n";EXP2.2_290421-1013-1;60.024;1.0.0.365;1;Chronos;1328350304;Full;3.0.3.80;3.0.3.80;05/04/2021;04/05/2021 07:57;09:57:06;3.0.3.82;2;Chronos;;2;1;2;TESTVV;Generalbloc;;;;pretest;Chronos;38;15;VV_290421/900.png;6;1;38;0;blocVVstim;listVVTrial;;;;Chronos;0;;0;0;1028706;200;;0;0;0;15;Chronos;0;0;1028906;300;1;990;1029896;0;15;Chronos;0;0;1029206;0;1;690;1029896;;;;;;;;;;;;;;;;;;;
EXP2.2_290421;1013;1;Chronos;<ChronosDeviceInfo><FriendlyName>MyChronos</FriendlyName><DeviceIndex>1</DeviceIndex><SerialNumber>CHR-04301-1186</SerialNumber><EBNVersion>3.0.3.80</EBNVersion><FirmwareVersion>1.33</FirmwareVersion><APIVersion>1.33</APIVersion><USBHostControllerVersion>2.0</USBHostControllerVersion><USBConnectionRoute>USB#ROOT_HUB20#4&9bd2e8a&0#{f18a0e88-c30c-11d0-8815-00a0c906bed8} + USB#VID_8087&PID_0024#5&3026c139&0&1#{f18a0e88-c30c-11d0-8815-00a0c906bed8}(1) + VID_2266&PID_0007(7)</USBConnectionRoute></ChronosDeviceInfo>;"<?xml version=""1.0""?>\n<Clock xmlns:dt=""urn:schemas-microsoft-com:datatypes""><Description dt:dt=""string"">E-Prime Primary Realtime Clock</Description><StartTime><Timestamp dt:dt=""int"">0</Timestamp><DateUtc dt:dt=""string"">2021-05-04T07:57:05Z</DateUtc></StartTime><FrequencyChanges><FrequencyChange><Frequency dt:dt=""r8"">2435576</Frequency><Timestamp dt:dt=""r8"">14212816147</Timestamp><Current dt:dt=""r8"">0</Current><DateUtc dt:dt=""string"">2021-05-04T07:57:05Z</DateUtc></FrequencyChange></FrequencyChanges></Clock>\n";EXP2.2_290421-1013-1;60.024;1.0.0.365;1;Chronos;1328350304;Full;3.0.3.80;3.0.3.80;05/04/2021;04/05/2021 07:57;09:57:06;3.0.3.82;2;Chronos;;2;1;2;TESTVV;Generalbloc;;;;pretest;Chronos;39;1;VV_290421/885.png;3;1;39;-15;blocVVstim;listVVTrial;;;;Chronos;0;;0;0;1031422;199;;0;0;1;1;Chronos;1;-1;1031621;300;1;592;1032213;1;1;Chronos;0;0;1031921;0;1;292;1032213;;;;;;;;;;;;;;;;;;;
EXP2.2_290421;1013;1;Chronos;<ChronosDeviceInfo><FriendlyName>MyChronos</FriendlyName><DeviceIndex>1</DeviceIndex><SerialNumber>CHR-04301-1186</SerialNumber><EBNVersion>3.0.3.80</EBNVersion><FirmwareVersion>1.33</FirmwareVersion><APIVersion>1.33</APIVersion><USBHostControllerVersion>2.0</USBHostControllerVersion><USBConnectionRoute>USB#ROOT_HUB20#4&9bd2e8a&0#{f18a0e88-c30c-11d0-8815-00a0c906bed8} + USB#VID_8087&PID_0024#5&3026c139&0&1#{f18a0e88-c30c-11d0-8815-00a0c906bed8}(1) + VID_2266&PID_0007(7)</USBConnectionRoute></ChronosDeviceInfo>;"<?xml version=""1.0""?>\n<Clock xmlns:dt=""urn:schemas-microsoft-com:datatypes""><Description dt:dt=""string"">E-Prime Primary Realtime Clock</Description><StartTime><Timestamp dt:dt=""int"">0</Timestamp><DateUtc dt:dt=""string"">2021-05-04T07:57:05Z</DateUtc></StartTime><FrequencyChanges><FrequencyChange><Frequency dt:dt=""r8"">2435576</Frequency><Timestamp dt:dt=""r8"">14212816147</Timestamp><Current dt:dt=""r8"">0</Current><DateUtc dt:dt=""string"">2021-05-04T07:57:05Z</DateUtc></FrequencyChange></FrequencyChanges></Clock>\n";EXP2.2_290421-1013-1;60.024;1.0.0.365;1;Chronos;1328350304;Full;3.0.3.80;3.0.3.80;05/04/2021;04/05/2021 07:57;09:57:06;3.0.3.82;2;Chronos;;2;1;2;TESTVV;Generalbloc;;;;pretest;Chronos;40;1;VV_290421/880.png;2;1;40;-20;blocVVstim;listVVTrial;;;;Chronos;0;;0;-1;1033737;200;;0;0;1;1;Chronos;0;0;1033937;300;1;999;1034936;1;1;Chronos;0;0;1034237;0;1;699;1034936;;;;;;;;;;;;;;;;;;;
EXP2.2_290421;1013;1;Chronos;<ChronosDeviceInfo><FriendlyName>MyChronos</FriendlyName><DeviceIndex>1</DeviceIndex><SerialNumber>CHR-04301-1186</SerialNumber><EBNVersion>3.0.3.80</EBNVersion><FirmwareVersion>1.33</FirmwareVersion><APIVersion>1.33</APIVersion><USBHostControllerVersion>2.0</USBHostControllerVersion><USBConnectionRoute>USB#ROOT_HUB20#4&9bd2e8a&0#{f18a0e88-c30c-11d0-8815-00a0c906bed8} + USB#VID_8087&PID_0024#5&3026c139&0&1#{f18a0e88-c30c-11d0-8815-00a0c906bed8}(1) + VID_2266&PID_0007(7)</USBConnectionRoute></ChronosDeviceInfo>;"<?xml version=""1.0""?>\n<Clock xmlns:dt=""urn:schemas-microsoft-com:datatypes""><Description dt:dt=""string"">E-Prime Primary Realtime Clock</Description><StartTime><Timestamp dt:dt=""int"">0</Timestamp><DateUtc dt:dt=""string"">2021-05-04T07:57:05Z</DateUtc></StartTime><FrequencyChanges><FrequencyChange><Frequency dt:dt=""r8"">2435576</Frequency><Timestamp dt:dt=""r8"">14212816147</Timestamp><Current dt:dt=""r8"">0</Current><DateUtc dt:dt=""string"">2021-05-04T07:57:05Z</DateUtc></FrequencyChange></FrequencyChanges></Clock>\n";EXP2.2_290421-1013-1;60.024;1.0.0.365;1;Chronos;1328350304;Full;3.0.3.80;3.0.3.80;05/04/2021;04/05/2021 07:57;09:57:06;3.0.3.82;2;Chronos;;2;1;2;TESTVV;Generalbloc;;;;pretest;Chronos;41;5;VV_290421/925.png;11;1;41;25;blocVVstim;listVVTrial;;;;Chronos;0;;0;-1;1036453;200;;0;0;1;5;Chronos;0;0;1036653;300;5;1259;1037912;1;5;Chronos;0;0;1036953;0;5;959;1037912;;;;;;;;;;;;;;;;;;;
EXP2.2_290421;1013;1;Chronos;<ChronosDeviceInfo><FriendlyName>MyChronos</FriendlyName><DeviceIndex>1</DeviceIndex><SerialNumber>CHR-04301-1186</SerialNumber><EBNVersion>3.0.3.80</EBNVersion><FirmwareVersion>1.33</FirmwareVersion><APIVersion>1.33</APIVersion><USBHostControllerVersion>2.0</USBHostControllerVersion><USBConnectionRoute>USB#ROOT_HUB20#4&9bd2e8a&0#{f18a0e88-c30c-11d0-8815-00a0c906bed8} + USB#VID_8087&PID_0024#5&3026c139&0&1#{f18a0e88-c30c-11d0-8815-00a0c906bed8}(1) + VID_2266&PID_0007(7)</USBConnectionRoute></ChronosDeviceInfo>;"<?xml version=""1.0""?>\n<Clock xmlns:dt=""urn:schemas-microsoft-com:datatypes""><Description dt:dt=""string"">E-Prime Primary Realtime Clock</Description><StartTime><Timestamp dt:dt=""int"">0</Timestamp><DateUtc dt:dt=""string"">2021-05-04T07:57:05Z</DateUtc></StartTime><FrequencyChanges><FrequencyChange><Frequency dt:dt=""r8"">2435576</Frequency><Timestamp dt:dt=""r8"">14212816147</Timestamp><Current dt:dt=""r8"">0</Current><DateUtc dt:dt=""string"">2021-05-04T07:57:05Z</DateUtc></FrequencyChange></FrequencyChanges></Clock>\n";EXP2.2_290421-1013-1;60.024;1.0.0.365;1;Chronos;1328350304;Full;3.0.3.80;3.0.3.80;05/04/2021;04/05/2021 07:57;09:57:06;3.0.3.82;2;Chronos;;2;1;2;TESTVV;Generalbloc;;;;pretest;Chronos;42;15;VV_290421/900.png;6;1;42;0;blocVVstim;listVVTrial;;;;Chronos;0;;0;-1;1039435;200;;0;0;0;15;Chronos;0;0;1039635;300;5;867;1040502;0;15;Chronos;0;0;1039935;0;5;567;1040502;;;;;;;;;;;;;;;;;;;
EXP2.2_290421;1013;1;Chronos;<ChronosDeviceInfo><FriendlyName>MyChronos</FriendlyName><DeviceIndex>1</DeviceIndex><SerialNumber>CHR-04301-1186</SerialNumber><EBNVersion>3.0.3.80</EBNVersion><FirmwareVersion>1.33</FirmwareVersion><APIVersion>1.33</APIVersion><USBHostControllerVersion>2.0</USBHostControllerVersion><USBConnectionRoute>USB#ROOT_HUB20#4&9bd2e8a&0#{f18a0e88-c30c-11d0-8815-00a0c906bed8} + USB#VID_8087&PID_0024#5&3026c139&0&1#{f18a0e88-c30c-11d0-8815-00a0c906bed8}(1) + VID_2266&PID_0007(7)</USBConnectionRoute></ChronosDeviceInfo>;"<?xml version=""1.0""?>\n<Clock xmlns:dt=""urn:schemas-microsoft-com:datatypes""><Description dt:dt=""string"">E-Prime Primary Realtime Clock</Description><StartTime><Timestamp dt:dt=""int"">0</Timestamp><DateUtc dt:dt=""string"">2021-05-04T07:57:05Z</DateUtc></StartTime><FrequencyChanges><FrequencyChange><Frequency dt:dt=""r8"">2435576</Frequency><Timestamp dt:dt=""r8"">14212816147</Timestamp><Current dt:dt=""r8"">0</Current><DateUtc dt:dt=""string"">2021-05-04T07:57:05Z</DateUtc></FrequencyChange></FrequencyChanges></Clock>\n";EXP2.2_290421-1013-1;60.024;1.0.0.365;1;Chronos;1328350304;Full;3.0.3.80;3.0.3.80;05/04/2021;04/05/2021 07:57;09:57:06;3.0.3.82;2;Chronos;;2;1;2;TESTVV;Generalbloc;;;;pretest;Chronos;43;5;VV_290421/925.png;11;1;43;25;blocVVstim;listVVTrial;;;;Chronos;0;;0;0;1042018;199;;0;0;1;5;Chronos;1;-1;1042217;300;5;655;1042872;1;5;Chronos;1;0;1042517;0;5;355;1042872;;;;;;;;;;;;;;;;;;;
EXP2.2_290421;1013;1;Chronos;<ChronosDeviceInfo><FriendlyName>MyChronos</FriendlyName><DeviceIndex>1</DeviceIndex><SerialNumber>CHR-04301-1186</SerialNumber><EBNVersion>3.0.3.80</EBNVersion><FirmwareVersion>1.33</FirmwareVersion><APIVersion>1.33</APIVersion><USBHostControllerVersion>2.0</USBHostControllerVersion><USBConnectionRoute>USB#ROOT_HUB20#4&9bd2e8a&0#{f18a0e88-c30c-11d0-8815-00a0c906bed8} + USB#VID_8087&PID_0024#5&3026c139&0&1#{f18a0e88-c30c-11d0-8815-00a0c906bed8}(1) + VID_2266&PID_0007(7)</USBConnectionRoute></ChronosDeviceInfo>;"<?xml version=""1.0""?>\n<Clock xmlns:dt=""urn:schemas-microsoft-com:datatypes""><Description dt:dt=""string"">E-Prime Primary Realtime Clock</Description><StartTime><Timestamp dt:dt=""int"">0</Timestamp><DateUtc dt:dt=""string"">2021-05-04T07:57:05Z</DateUtc></StartTime><FrequencyChanges><FrequencyChange><Frequency dt:dt=""r8"">2435576</Frequency><Timestamp dt:dt=""r8"">14212816147</Timestamp><Current dt:dt=""r8"">0</Current><DateUtc dt:dt=""string"">2021-05-04T07:57:05Z</DateUtc></FrequencyChange></FrequencyChanges></Clock>\n";EXP2.2_290421-1013-1;60.024;1.0.0.365;1;Chronos;1328350304;Full;3.0.3.80;3.0.3.80;05/04/2021;04/05/2021 07:57;09:57:06;3.0.3.82;2;Chronos;;2;1;2;TESTVV;Generalbloc;;;;pretest;Chronos;44;15;VV_290421/900.png;6;1;44;0;blocVVstim;listVVTrial;;;;Chronos;0;;0;-1;1044400;200;;0;0;0;15;Chronos;0;0;1044600;300;5;959;1045559;0;15;Chronos;0;0;1044900;0;5;659;1045559;;;;;;;;;;;;;;;;;;;
EXP2.2_290421;1013;1;Chronos;<ChronosDeviceInfo><FriendlyName>MyChronos</FriendlyName><DeviceIndex>1</DeviceIndex><SerialNumber>CHR-04301-1186</SerialNumber><EBNVersion>3.0.3.80</EBNVersion><FirmwareVersion>1.33</FirmwareVersion><APIVersion>1.33</APIVersion><USBHostControllerVersion>2.0</USBHostControllerVersion><USBConnectionRoute>USB#ROOT_HUB20#4&9bd2e8a&0#{f18a0e88-c30c-11d0-8815-00a0c906bed8} + USB#VID_8087&PID_0024#5&3026c139&0&1#{f18a0e88-c30c-11d0-8815-00a0c906bed8}(1) + VID_2266&PID_0007(7)</USBConnectionRoute></ChronosDeviceInfo>;"<?xml version=""1.0""?>\n<Clock xmlns:dt=""urn:schemas-microsoft-com:datatypes""><Description dt:dt=""string"">E-Prime Primary Realtime Clock</Description><StartTime><Timestamp dt:dt=""int"">0</Timestamp><DateUtc dt:dt=""string"">2021-05-04T07:57:05Z</DateUtc></StartTime><FrequencyChanges><FrequencyChange><Frequency dt:dt=""r8"">2435576</Frequency><Timestamp dt:dt=""r8"">14212816147</Timestamp><Current dt:dt=""r8"">0</Current><DateUtc dt:dt=""string"">2021-05-04T07:57:05Z</DateUtc></FrequencyChange></FrequencyChanges></Clock>\n";EXP2.2_290421-1013-1;60.024;1.0.0.365;1;Chronos;1328350304;Full;3.0.3.80;3.0.3.80;05/04/2021;04/05/2021 07:57;09:57:06;3.0.3.82;2;Chronos;;2;1;2;TESTVV;Generalbloc;;;;pretest;Chronos;45;5;VV_290421/905.png;7;1;45;5;blocVVstim;listVVTrial;;;;Chronos;0;;0;-1;1047082;200;;0;0;1;5;Chronos;0;0;1047282;300;5;696;1047978;1;5;Chronos;0;0;1047582;0;5;396;1047978;;;;;;;;;;;;;;;;;;;
EXP2.2_290421;1013;1;Chronos;<ChronosDeviceInfo><FriendlyName>MyChronos</FriendlyName><DeviceIndex>1</DeviceIndex><SerialNumber>CHR-04301-1186</SerialNumber><EBNVersion>3.0.3.80</EBNVersion><FirmwareVersion>1.33</FirmwareVersion><APIVersion>1.33</APIVersion><USBHostControllerVersion>2.0</USBHostControllerVersion><USBConnectionRoute>USB#ROOT_HUB20#4&9bd2e8a&0#{f18a0e88-c30c-11d0-8815-00a0c906bed8} + USB#VID_8087&PID_0024#5&3026c139&0&1#{f18a0e88-c30c-11d0-8815-00a0c906bed8}(1) + VID_2266&PID_0007(7)</USBConnectionRoute></ChronosDeviceInfo>;"<?xml version=""1.0""?>\n<Clock xmlns:dt=""urn:schemas-microsoft-com:datatypes""><Description dt:dt=""string"">E-Prime Primary Realtime Clock</Description><StartTime><Timestamp dt:dt=""int"">0</Timestamp><DateUtc dt:dt=""string"">2021-05-04T07:57:05Z</DateUtc></StartTime><FrequencyChanges><FrequencyChange><Frequency dt:dt=""r8"">2435576</Frequency><Timestamp dt:dt=""r8"">14212816147</Timestamp><Current dt:dt=""r8"">0</Current><DateUtc dt:dt=""string"">2021-05-04T07:57:05Z</DateUtc></FrequencyChange></FrequencyChanges></Clock>\n";EXP2.2_290421-1013-1;60.024;1.0.0.365;1;Chronos;1328350304;Full;3.0.3.80;3.0.3.80;05/04/2021;04/05/2021 07:57;09:57:06;3.0.3.82;2;Chronos;;2;1;2;TESTVV;Generalbloc;;;;pretest;Chronos;46;5;VV_290421/905.png;7;1;46;5;blocVVstim;listVVTrial;;;;Chronos;0;;0;-1;1049498;200;;0;0;1;5;Chronos;0;0;1049698;300;5;839;1050537;1;5;Chronos;0;0;1049998;0;5;539;1050537;;;;;;;;;;;;;;;;;;;
EXP2.2_290421;1013;1;Chronos;<ChronosDeviceInfo><FriendlyName>MyChronos</FriendlyName><DeviceIndex>1</DeviceIndex><SerialNumber>CHR-04301-1186</SerialNumber><EBNVersion>3.0.3.80</EBNVersion><FirmwareVersion>1.33</FirmwareVersion><APIVersion>1.33</APIVersion><USBHostControllerVersion>2.0</USBHostControllerVersion><USBConnectionRoute>USB#ROOT_HUB20#4&9bd2e8a&0#{f18a0e88-c30c-11d0-8815-00a0c906bed8} + USB#VID_8087&PID_0024#5&3026c139&0&1#{f18a0e88-c30c-11d0-8815-00a0c906bed8}(1) + VID_2266&PID_0007(7)</USBConnectionRoute></ChronosDeviceInfo>;"<?xml version=""1.0""?>\n<Clock xmlns:dt=""urn:schemas-microsoft-com:datatypes""><Description dt:dt=""string"">E-Prime Primary Realtime Clock</Description><StartTime><Timestamp dt:dt=""int"">0</Timestamp><DateUtc dt:dt=""string"">2021-05-04T07:57:05Z</DateUtc></StartTime><FrequencyChanges><FrequencyChange><Frequency dt:dt=""r8"">2435576</Frequency><Timestamp dt:dt=""r8"">14212816147</Timestamp><Current dt:dt=""r8"">0</Current><DateUtc dt:dt=""string"">2021-05-04T07:57:05Z</DateUtc></FrequencyChange></FrequencyChanges></Clock>\n";EXP2.2_290421-1013-1;60.024;1.0.0.365;1;Chronos;1328350304;Full;3.0.3.80;3.0.3.80;05/04/2021;04/05/2021 07:57;09:57:06;3.0.3.82;2;Chronos;;2;1;2;TESTVV;Generalbloc;;;;pretest;Chronos;47;5;VV_290421/910.png;8;1;47;10;blocVVstim;listVVTrial;;;;Chronos;0;;0;-1;1052047;200;;0;0;1;5;Chronos;0;0;1052247;300;5;1068;1053315;1;5;Chronos;0;0;1052547;0;5;768;1053315;;;;;;;;;;;;;;;;;;;
EXP2.2_290421;1013;1;Chronos;<ChronosDeviceInfo><FriendlyName>MyChronos</FriendlyName><DeviceIndex>1</DeviceIndex><SerialNumber>CHR-04301-1186</SerialNumber><EBNVersion>3.0.3.80</EBNVersion><FirmwareVersion>1.33</FirmwareVersion><APIVersion>1.33</APIVersion><USBHostControllerVersion>2.0</USBHostControllerVersion><USBConnectionRoute>USB#ROOT_HUB20#4&9bd2e8a&0#{f18a0e88-c30c-11d0-8815-00a0c906bed8} + USB#VID_8087&PID_0024#5&3026c139&0&1#{f18a0e88-c30c-11d0-8815-00a0c906bed8}(1) + VID_2266&PID_0007(7)</USBConnectionRoute></ChronosDeviceInfo>;"<?xml version=""1.0""?>\n<Clock xmlns:dt=""urn:schemas-microsoft-com:datatypes""><Description dt:dt=""string"">E-Prime Primary Realtime Clock</Description><StartTime><Timestamp dt:dt=""int"">0</Timestamp><DateUtc dt:dt=""string"">2021-05-04T07:57:05Z</DateUtc></StartTime><FrequencyChanges><FrequencyChange><Frequency dt:dt=""r8"">2435576</Frequency><Timestamp dt:dt=""r8"">14212816147</Timestamp><Current dt:dt=""r8"">0</Current><DateUtc dt:dt=""string"">2021-05-04T07:57:05Z</DateUtc></FrequencyChange></FrequencyChanges></Clock>\n";EXP2.2_290421-1013-1;60.024;1.0.0.365;1;Chronos;1328350304;Full;3.0.3.80;3.0.3.80;05/04/2021;04/05/2021 07:57;09:57:06;3.0.3.82;2;Chronos;;2;1;2;TESTVV;Generalbloc;;;;pretest;Chronos;48;5;VV_290421/910.png;8;1;48;10;blocVVstim;listVVTrial;;;;Chronos;0;;1;-1;1054829;200;;0;0;1;5;Chronos;1;0;1055029;300;5;1101;1056130;1;5;Chronos;0;0;1055329;0;5;801;1056130;;;;;;;;;;;;;;;;;;;
EXP2.2_290421;1013;1;Chronos;<ChronosDeviceInfo><FriendlyName>MyChronos</FriendlyName><DeviceIndex>1</DeviceIndex><SerialNumber>CHR-04301-1186</SerialNumber><EBNVersion>3.0.3.80</EBNVersion><FirmwareVersion>1.33</FirmwareVersion><APIVersion>1.33</APIVersion><USBHostControllerVersion>2.0</USBHostControllerVersion><USBConnectionRoute>USB#ROOT_HUB20#4&9bd2e8a&0#{f18a0e88-c30c-11d0-8815-00a0c906bed8} + USB#VID_8087&PID_0024#5&3026c139&0&1#{f18a0e88-c30c-11d0-8815-00a0c906bed8}(1) + VID_2266&PID_0007(7)</USBConnectionRoute></ChronosDeviceInfo>;"<?xml version=""1.0""?>\n<Clock xmlns:dt=""urn:schemas-microsoft-com:datatypes""><Description dt:dt=""string"">E-Prime Primary Realtime Clock</Description><StartTime><Timestamp dt:dt=""int"">0</Timestamp><DateUtc dt:dt=""string"">2021-05-04T07:57:05Z</DateUtc></StartTime><FrequencyChanges><FrequencyChange><Frequency dt:dt=""r8"">2435576</Frequency><Timestamp dt:dt=""r8"">14212816147</Timestamp><Current dt:dt=""r8"">0</Current><DateUtc dt:dt=""string"">2021-05-04T07:57:05Z</DateUtc></FrequencyChange></FrequencyChanges></Clock>\n";EXP2.2_290421-1013-1;60.024;1.0.0.365;1;Chronos;1328350304;Full;3.0.3.80;3.0.3.80;05/04/2021;04/05/2021 07:57;09:57:06;3.0.3.82;2;Chronos;;2;1;2;TESTVV;Generalbloc;;;;pretest;Chronos;49;5;VV_290421/910.png;8;1;49;10;blocVVstim;listVVTrial;;;;Chronos;0;;0;-1;1057645;200;;0;0;1;5;Chronos;0;0;1057845;300;5;692;1058537;1;5;Chronos;0;0;1058145;0;5;392;1058537;;;;;;;;;;;;;;;;;;;
EXP2.2_290421;1013;1;Chronos;<ChronosDeviceInfo><FriendlyName>MyChronos</FriendlyName><DeviceIndex>1</DeviceIndex><SerialNumber>CHR-04301-1186</SerialNumber><EBNVersion>3.0.3.80</EBNVersion><FirmwareVersion>1.33</FirmwareVersion><APIVersion>1.33</APIVersion><USBHostControllerVersion>2.0</USBHostControllerVersion><USBConnectionRoute>USB#ROOT_HUB20#4&9bd2e8a&0#{f18a0e88-c30c-11d0-8815-00a0c906bed8} + USB#VID_8087&PID_0024#5&3026c139&0&1#{f18a0e88-c30c-11d0-8815-00a0c906bed8}(1) + VID_2266&PID_0007(7)</USBConnectionRoute></ChronosDeviceInfo>;"<?xml version=""1.0""?>\n<Clock xmlns:dt=""urn:schemas-microsoft-com:datatypes""><Description dt:dt=""string"">E-Prime Primary Realtime Clock</Description><StartTime><Timestamp dt:dt=""int"">0</Timestamp><DateUtc dt:dt=""string"">2021-05-04T07:57:05Z</DateUtc></StartTime><FrequencyChanges><FrequencyChange><Frequency dt:dt=""r8"">2435576</Frequency><Timestamp dt:dt=""r8"">14212816147</Timestamp><Current dt:dt=""r8"">0</Current><DateUtc dt:dt=""string"">2021-05-04T07:57:05Z</DateUtc></FrequencyChange></FrequencyChanges></Clock>\n";EXP2.2_290421-1013-1;60.024;1.0.0.365;1;Chronos;1328350304;Full;3.0.3.80;3.0.3.80;05/04/2021;04/05/2021 07:57;09:57:06;3.0.3.82;2;Chronos;;2;1;2;TESTVV;Generalbloc;;;;pretest;Chronos;50;5;VV_290421/915.png;9;1;50;15;blocVVstim;listVVTrial;;;;Chronos;0;;0;0;1060061;200;;0;0;1;5;Chronos;0;0;1060261;300;5;794;1061055;1;5;Chronos;0;0;1060561;0;5;494;1061055;;;;;;;;;;;;;;;;;;;
EXP2.2_290421;1013;1;Chronos;<ChronosDeviceInfo><FriendlyName>MyChronos</FriendlyName><DeviceIndex>1</DeviceIndex><SerialNumber>CHR-04301-1186</SerialNumber><EBNVersion>3.0.3.80</EBNVersion><FirmwareVersion>1.33</FirmwareVersion><APIVersion>1.33</APIVersion><USBHostControllerVersion>2.0</USBHostControllerVersion><USBConnectionRoute>USB#ROOT_HUB20#4&9bd2e8a&0#{f18a0e88-c30c-11d0-8815-00a0c906bed8} + USB#VID_8087&PID_0024#5&3026c139&0&1#{f18a0e88-c30c-11d0-8815-00a0c906bed8}(1) + VID_2266&PID_0007(7)</USBConnectionRoute></ChronosDeviceInfo>;"<?xml version=""1.0""?>\n<Clock xmlns:dt=""urn:schemas-microsoft-com:datatypes""><Description dt:dt=""string"">E-Prime Primary Realtime Clock</Description><StartTime><Timestamp dt:dt=""int"">0</Timestamp><DateUtc dt:dt=""string"">2021-05-04T07:57:05Z</DateUtc></StartTime><FrequencyChanges><FrequencyChange><Frequency dt:dt=""r8"">2435576</Frequency><Timestamp dt:dt=""r8"">14212816147</Timestamp><Current dt:dt=""r8"">0</Current><DateUtc dt:dt=""string"">2021-05-04T07:57:05Z</DateUtc></FrequencyChange></FrequencyChanges></Clock>\n";EXP2.2_290421-1013-1;60.024;1.0.0.365;1;Chronos;1328350304;Full;3.0.3.80;3.0.3.80;05/04/2021;04/05/2021 07:57;09:57:06;3.0.3.82;2;Chronos;;2;1;2;TESTVV;Generalbloc;;;;pretest;Chronos;51;5;VV_290421/925.png;11;1;51;25;blocVVstim;listVVTrial;;;;Chronos;0;;0;0;1062577;199;;0;0;1;5;Chronos;1;-1;1062776;300;5;513;1063289;1;5;Chronos;1;0;1063076;0;5;213;1063289;;;;;;;;;;;;;;;;;;;
EXP2.2_290421;1013;1;Chronos;<ChronosDeviceInfo><FriendlyName>MyChronos</FriendlyName><DeviceIndex>1</DeviceIndex><SerialNumber>CHR-04301-1186</SerialNumber><EBNVersion>3.0.3.80</EBNVersion><FirmwareVersion>1.33</FirmwareVersion><APIVersion>1.33</APIVersion><USBHostControllerVersion>2.0</USBHostControllerVersion><USBConnectionRoute>USB#ROOT_HUB20#4&9bd2e8a&0#{f18a0e88-c30c-11d0-8815-00a0c906bed8} + USB#VID_8087&PID_0024#5&3026c139&0&1#{f18a0e88-c30c-11d0-8815-00a0c906bed8}(1) + VID_2266&PID_0007(7)</USBConnectionRoute></ChronosDeviceInfo>;"<?xml version=""1.0""?>\n<Clock xmlns:dt=""urn:schemas-microsoft-com:datatypes""><Description dt:dt=""string"">E-Prime Primary Realtime Clock</Description><StartTime><Timestamp dt:dt=""int"">0</Timestamp><DateUtc dt:dt=""string"">2021-05-04T07:57:05Z</DateUtc></StartTime><FrequencyChanges><FrequencyChange><Frequency dt:dt=""r8"">2435576</Frequency><Timestamp dt:dt=""r8"">14212816147</Timestamp><Current dt:dt=""r8"">0</Current><DateUtc dt:dt=""string"">2021-05-04T07:57:05Z</DateUtc></FrequencyChange></FrequencyChanges></Clock>\n";EXP2.2_290421-1013-1;60.024;1.0.0.365;1;Chronos;1328350304;Full;3.0.3.80;3.0.3.80;05/04/2021;04/05/2021 07:57;09:57:06;3.0.3.82;2;Chronos;;2;1;2;TESTVV;Generalbloc;;;;pretest;Chronos;52;5;VV_290421/920.png;10;1;52;20;blocVVstim;listVVTrial;;;;Chronos;0;;0;-1;1064809;200;;0;0;0;5;Chronos;0;0;1065009;0;1;292;1065301;0;;;-999999;0;1065309;0;;0;0;;;;;;;;;;;;;;;;;;;
EXP2.2_290421;1013;1;Chronos;<ChronosDeviceInfo><FriendlyName>MyChronos</FriendlyName><DeviceIndex>1</DeviceIndex><SerialNumber>CHR-04301-1186</SerialNumber><EBNVersion>3.0.3.80</EBNVersion><FirmwareVersion>1.33</FirmwareVersion><APIVersion>1.33</APIVersion><USBHostControllerVersion>2.0</USBHostControllerVersion><USBConnectionRoute>USB#ROOT_HUB20#4&9bd2e8a&0#{f18a0e88-c30c-11d0-8815-00a0c906bed8} + USB#VID_8087&PID_0024#5&3026c139&0&1#{f18a0e88-c30c-11d0-8815-00a0c906bed8}(1) + VID_2266&PID_0007(7)</USBConnectionRoute></ChronosDeviceInfo>;"<?xml version=""1.0""?>\n<Clock xmlns:dt=""urn:schemas-microsoft-com:datatypes""><Description dt:dt=""string"">E-Prime Primary Realtime Clock</Description><StartTime><Timestamp dt:dt=""int"">0</Timestamp><DateUtc dt:dt=""string"">2021-05-04T07:57:05Z</DateUtc></StartTime><FrequencyChanges><FrequencyChange><Frequency dt:dt=""r8"">2435576</Frequency><Timestamp dt:dt=""r8"">14212816147</Timestamp><Current dt:dt=""r8"">0</Current><DateUtc dt:dt=""string"">2021-05-04T07:57:05Z</DateUtc></FrequencyChange></FrequencyChanges></Clock>\n";EXP2.2_290421-1013-1;60.024;1.0.0.365;1;Chronos;1328350304;Full;3.0.3.80;3.0.3.80;05/04/2021;04/05/2021 07:57;09:57:06;3.0.3.82;2;Chronos;;2;1;2;TESTVV;Generalbloc;;;;pretest;Chronos;53;1;VV_290421/875.png;1;1;53;-25;blocVVstim;listVVTrial;;;;Chronos;0;;0;0;1066842;200;;0;0;1;1;Chronos;0;0;1067042;299;1;751;1067793;1;1;Chronos;1;-1;1067341;0;1;452;1067793;;;;;;;;;;;;;;;;;;;
EXP2.2_290421;1013;1;Chronos;<ChronosDeviceInfo><FriendlyName>MyChronos</FriendlyName><DeviceIndex>1</DeviceIndex><SerialNumber>CHR-04301-1186</SerialNumber><EBNVersion>3.0.3.80</EBNVersion><FirmwareVersion>1.33</FirmwareVersion><APIVersion>1.33</APIVersion><USBHostControllerVersion>2.0</USBHostControllerVersion><USBConnectionRoute>USB#ROOT_HUB20#4&9bd2e8a&0#{f18a0e88-c30c-11d0-8815-00a0c906bed8} + USB#VID_8087&PID_0024#5&3026c139&0&1#{f18a0e88-c30c-11d0-8815-00a0c906bed8}(1) + VID_2266&PID_0007(7)</USBConnectionRoute></ChronosDeviceInfo>;"<?xml version=""1.0""?>\n<Clock xmlns:dt=""urn:schemas-microsoft-com:datatypes""><Description dt:dt=""string"">E-Prime Primary Realtime Clock</Description><StartTime><Timestamp dt:dt=""int"">0</Timestamp><DateUtc dt:dt=""string"">2021-05-04T07:57:05Z</DateUtc></StartTime><FrequencyChanges><FrequencyChange><Frequency dt:dt=""r8"">2435576</Frequency><Timestamp dt:dt=""r8"">14212816147</Timestamp><Current dt:dt=""r8"">0</Current><DateUtc dt:dt=""string"">2021-05-04T07:57:05Z</DateUtc></FrequencyChange></FrequencyChanges></Clock>\n";EXP2.2_290421-1013-1;60.024;1.0.0.365;1;Chronos;1328350304;Full;3.0.3.80;3.0.3.80;05/04/2021;04/05/2021 07:57;09:57:06;3.0.3.82;2;Chronos;;2;1;2;TESTVV;Generalbloc;;;;pretest;Chronos;54;5;VV_290421/915.png;9;1;54;15;blocVVstim;listVVTrial;;;;Chronos;0;;1;-1;1069307;200;;0;0;1;5;Chronos;0;0;1069507;300;5;479;1069986;1;5;Chronos;0;0;1069807;0;5;179;1069986;;;;;;;;;;;;;;;;;;;
EXP2.2_290421;1013;1;Chronos;<ChronosDeviceInfo><FriendlyName>MyChronos</FriendlyName><DeviceIndex>1</DeviceIndex><SerialNumber>CHR-04301-1186</SerialNumber><EBNVersion>3.0.3.80</EBNVersion><FirmwareVersion>1.33</FirmwareVersion><APIVersion>1.33</APIVersion><USBHostControllerVersion>2.0</USBHostControllerVersion><USBConnectionRoute>USB#ROOT_HUB20#4&9bd2e8a&0#{f18a0e88-c30c-11d0-8815-00a0c906bed8} + USB#VID_8087&PID_0024#5&3026c139&0&1#{f18a0e88-c30c-11d0-8815-00a0c906bed8}(1) + VID_2266&PID_0007(7)</USBConnectionRoute></ChronosDeviceInfo>;"<?xml version=""1.0""?>\n<Clock xmlns:dt=""urn:schemas-microsoft-com:datatypes""><Description dt:dt=""string"">E-Prime Primary Realtime Clock</Description><StartTime><Timestamp dt:dt=""int"">0</Timestamp><DateUtc dt:dt=""string"">2021-05-04T07:57:05Z</DateUtc></StartTime><FrequencyChanges><FrequencyChange><Frequency dt:dt=""r8"">2435576</Frequency><Timestamp dt:dt=""r8"">14212816147</Timestamp><Current dt:dt=""r8"">0</Current><DateUtc dt:dt=""string"">2021-05-04T07:57:05Z</DateUtc></FrequencyChange></FrequencyChanges></Clock>\n";EXP2.2_290421-1013-1;60.024;1.0.0.365;1;Chronos;1328350304;Full;3.0.3.80;3.0.3.80;05/04/2021;04/05/2021 07:57;09:57:06;3.0.3.82;2;Chronos;;2;1;2;TESTVV;Generalbloc;;;;pretest;Chronos;55;1;VV_290421/885.png;3;1;55;-15;blocVVstim;listVVTrial;;;;Chronos;0;;0;0;1071507;200;;0;0;1;1;Chronos;0;0;1071707;0;1;212;1071919;0;;;-999999;0;0;0;;0;0;;;;;;;;;;;;;;;;;;;
EXP2.2_290421;1013;1;Chronos;<ChronosDeviceInfo><FriendlyName>MyChronos</FriendlyName><DeviceIndex>1</DeviceIndex><SerialNumber>CHR-04301-1186</SerialNumber><EBNVersion>3.0.3.80</EBNVersion><FirmwareVersion>1.33</FirmwareVersion><APIVersion>1.33</APIVersion><USBHostControllerVersion>2.0</USBHostControllerVersion><USBConnectionRoute>USB#ROOT_HUB20#4&9bd2e8a&0#{f18a0e88-c30c-11d0-8815-00a0c906bed8} + USB#VID_8087&PID_0024#5&3026c139&0&1#{f18a0e88-c30c-11d0-8815-00a0c906bed8}(1) + VID_2266&PID_0007(7)</USBConnectionRoute></ChronosDeviceInfo>;"<?xml version=""1.0""?>\n<Clock xmlns:dt=""urn:schemas-microsoft-com:datatypes""><Description dt:dt=""string"">E-Prime Primary Realtime Clock</Description><StartTime><Timestamp dt:dt=""int"">0</Timestamp><DateUtc dt:dt=""string"">2021-05-04T07:57:05Z</DateUtc></StartTime><FrequencyChanges><FrequencyChange><Frequency dt:dt=""r8"">2435576</Frequency><Timestamp dt:dt=""r8"">14212816147</Timestamp><Current dt:dt=""r8"">0</Current><DateUtc dt:dt=""string"">2021-05-04T07:57:05Z</DateUtc></FrequencyChange></FrequencyChanges></Clock>\n";EXP2.2_290421-1013-1;60.024;1.0.0.365;1;Chronos;1328350304;Full;3.0.3.80;3.0.3.80;05/04/2021;04/05/2021 07:57;09:57:06;3.0.3.82;2;Chronos;;2;1;2;TESTVV;Generalbloc;;;;pretest;Chronos;56;5;VV_290421/915.png;9;1;56;15;blocVVstim;listVVTrial;;;;Chronos;0;;0;-1;1073439;200;;0;0;1;5;Chronos;0;0;1073639;300;5;359;1073998;1;5;Chronos;0;0;1073939;0;5;59;1073998;;;;;;;;;;;;;;;;;;;
EXP2.2_290421;1013;1;Chronos;<ChronosDeviceInfo><FriendlyName>MyChronos</FriendlyName><DeviceIndex>1</DeviceIndex><SerialNumber>CHR-04301-1186</SerialNumber><EBNVersion>3.0.3.80</EBNVersion><FirmwareVersion>1.33</FirmwareVersion><APIVersion>1.33</APIVersion><USBHostControllerVersion>2.0</USBHostControllerVersion><USBConnectionRoute>USB#ROOT_HUB20#4&9bd2e8a&0#{f18a0e88-c30c-11d0-8815-00a0c906bed8} + USB#VID_8087&PID_0024#5&3026c139&0&1#{f18a0e88-c30c-11d0-8815-00a0c906bed8}(1) + VID_2266&PID_0007(7)</USBConnectionRoute></ChronosDeviceInfo>;"<?xml version=""1.0""?>\n<Clock xmlns:dt=""urn:schemas-microsoft-com:datatypes""><Description dt:dt=""string"">E-Prime Primary Realtime Clock</Description><StartTime><Timestamp dt:dt=""int"">0</Timestamp><DateUtc dt:dt=""string"">2021-05-04T07:57:05Z</DateUtc></StartTime><FrequencyChanges><FrequencyChange><Frequency dt:dt=""r8"">2435576</Frequency><Timestamp dt:dt=""r8"">14212816147</Timestamp><Current dt:dt=""r8"">0</Current><DateUtc dt:dt=""string"">2021-05-04T07:57:05Z</DateUtc></FrequencyChange></FrequencyChanges></Clock>\n";EXP2.2_290421-1013-1;60.024;1.0.0.365;1;Chronos;1328350304;Full;3.0.3.80;3.0.3.80;05/04/2021;04/05/2021 07:57;09:57:06;3.0.3.82;2;Chronos;;2;1;2;TESTVV;Generalbloc;;;;pretest;Chronos;57;1;VV_290421/875.png;1;1;57;-25;blocVVstim;listVVTrial;;;;Chronos;0;;0;0;1075522;200;;0;0;1;1;Chronos;0;0;1075722;300;1;431;1076153;1;1;Chronos;0;0;1076022;0;1;131;1076153;;;;;;;;;;;;;;;;;;;
