ExperimentName;Subject;Session;calibrage.DEVICE[Session];Chronos.BoxInfo;Clock.Information;DataFile.Basename;Display.RefreshRate;ExperimentVersion;Group;Hello.DEVICE;RandomSeed;RuntimeCapabilities;RuntimeVersion;RuntimeVersionExpected;SessionDate;SessionStartDateTimeUtc;SessionTime;StudioVersion;Block;calibrage.DEVICE[Block];EndTraining.DEVICE;Generalbloc;Generalbloc.Cycle;Generalbloc.Sample;Procedure[Block];Running[Block];TextDisplay1.DEVICE;TextDisplay2.DEVICE;TextTraining.DEVICE;time;VVInst.DEVICE[Block];Trial;correct;image;listVVTrial;listVVTrial.Cycle;listVVTrial.Sample;offset;Procedure[Trial];Running[Trial];SpatialTaskTraining;SpatialTaskTraining.Cycle;SpatialTaskTraining.Sample;VVInst.DEVICE[Trial];vvstimnoresp.ACC;vvstimnoresp.CRESP;vvstimnoresp.DurationError;vvstimnoresp.OnsetDelay;vvstimnoresp.OnsetTime;vvstimnoresp.OnsetToOnsetTime;vvstimnoresp.RESP;vvstimnoresp.RT;vvstimnoresp.RTTime;vvstimresp1.ACC;vvstimresp1.CRESP;vvstimresp1.DEVICE;vvstimresp1.DurationError;vvstimresp1.OnsetDelay;vvstimresp1.OnsetTime;vvstimresp1.OnsetToOnsetTime;vvstimresp1.RESP;vvstimresp1.RT;vvstimresp1.RTTime;vvstimresp2.ACC;vvstimresp2.CRESP;vvstimresp2.DEVICE;vvstimresp2.DurationError;vvstimresp2.OnsetDelay;vvstimresp2.OnsetTime;vvstimresp2.OnsetToOnsetTime;vvstimresp2.RESP;vvstimresp2.RT;vvstimresp2.RTTime;SubTrial;LISTVVRANDOM1;LISTVVRANDOM1.Cycle;LISTVVRANDOM1.Sample;LISTVVRANDOM2;Procedure[SubTrial];Running[SubTrial];VVR;VVRANDOM;VVRANDOMRESP.ACC;VVRANDOMRESP.CRESP;VVRANDOMRESP.DEVICE;VVRANDOMRESP.DurationError;VVRANDOMRESP.OnsetDelay;VVRANDOMRESP.OnsetTime;VVRANDOMRESP.OnsetToOnsetTime;VVRANDOMRESP.RESP;VVRANDOMRESP.RT;VVRANDOMRESP.RTTime
EXP2.2_290421;100020;1;Chronos;<ChronosDeviceInfo><FriendlyName>MyChronos</FriendlyName><DeviceIndex>1</DeviceIndex><SerialNumber>CHR-04301-1186</SerialNumber><EBNVersion>3.0.3.80</EBNVersion><FirmwareVersion>1.33</FirmwareVersion><APIVersion>1.33</APIVersion><USBHostControllerVersion>2.0</USBHostControllerVersion><USBConnectionRoute>USB#ROOT_HUB20#4&f63975&0#{f18a0e88-c30c-11d0-8815-00a0c906bed8} + USB#VID_8087&PID_0024#5&365d106a&0&1#{f18a0e88-c30c-11d0-8815-00a0c906bed8}(1) + VID_2266&PID_0007(2)</USBConnectionRoute></ChronosDeviceInfo>;"<?xml version=""1.0""?>\n<Clock xmlns:dt=""urn:schemas-microsoft-com:datatypes""><Description dt:dt=""string"">E-Prime Primary Realtime Clock</Description><StartTime><Timestamp dt:dt=""int"">0</Timestamp><DateUtc dt:dt=""string"">2013-09-12T06:53:53Z</DateUtc></StartTime><FrequencyChanges><FrequencyChange><Frequency dt:dt=""r8"">3312832</Frequency><Timestamp dt:dt=""r8"">12685803273</Timestamp><Current dt:dt=""r8"">0</Current><DateUtc dt:dt=""string"">2013-09-12T06:53:53Z</DateUtc></FrequencyChange></FrequencyChanges></Clock>\n";EXP2.2_290421-100020-1;59.951;1.0.0.347;1;Chronos;-198517043;Full;3.0.3.80;3.0.3.80;09/12/2013;12/09/2013 06:53;08:53:53;3.0.3.82;1;Chronos;Chronos;1;1;1;Training;Generalbloc;;;Chronos;pretest;;1;;;;;;;TRAININGVV;SpatialTaskTraining;1;1;1;Chronos;;;;;;;;;;;;;;;;;;;;;;;;;;;;;;1;1;1;1;1;blocVVstimTraining;LISTVVRANDOM1;VV_290421/875.png;VV_290421/880.png;0;;Chronos;-999999;1;82495;0;1;176;82671
EXP2.2_290421;100020;1;Chronos;<ChronosDeviceInfo><FriendlyName>MyChronos</FriendlyName><DeviceIndex>1</DeviceIndex><SerialNumber>CHR-04301-1186</SerialNumber><EBNVersion>3.0.3.80</EBNVersion><FirmwareVersion>1.33</FirmwareVersion><APIVersion>1.33</APIVersion><USBHostControllerVersion>2.0</USBHostControllerVersion><USBConnectionRoute>USB#ROOT_HUB20#4&f63975&0#{f18a0e88-c30c-11d0-8815-00a0c906bed8} + USB#VID_8087&PID_0024#5&365d106a&0&1#{f18a0e88-c30c-11d0-8815-00a0c906bed8}(1) + VID_2266&PID_0007(2)</USBConnectionRoute></ChronosDeviceInfo>;"<?xml version=""1.0""?>\n<Clock xmlns:dt=""urn:schemas-microsoft-com:datatypes""><Description dt:dt=""string"">E-Prime Primary Realtime Clock</Description><StartTime><Timestamp dt:dt=""int"">0</Timestamp><DateUtc dt:dt=""string"">2013-09-12T06:53:53Z</DateUtc></StartTime><FrequencyChanges><FrequencyChange><Frequency dt:dt=""r8"">3312832</Frequency><Timestamp dt:dt=""r8"">12685803273</Timestamp><Current dt:dt=""r8"">0</Current><DateUtc dt:dt=""string"">2013-09-12T06:53:53Z</DateUtc></FrequencyChange></FrequencyChanges></Clock>\n";EXP2.2_290421-100020-1;59.951;1.0.0.347;1;Chronos;-198517043;Full;3.0.3.80;3.0.3.80;09/12/2013;12/09/2013 06:53;08:53:53;3.0.3.82;1;Chronos;Chronos;1;1;1;Training;Generalbloc;;;Chronos;pretest;;1;;;;;;;TRAININGVV;SpatialTaskTraining;1;1;1;Chronos;;;;;;;;;;;;;;;;;;;;;;;;;;;;;;2;1;1;2;3;blocVVstimTraining;LISTVVRANDOM1;VV_290421/885.png;VV_290421/890.png;0;;Chronos;-999999;1;84697;0;5;7758;92455
EXP2.2_290421;100020;1;Chronos;<ChronosDeviceInfo><FriendlyName>MyChronos</FriendlyName><DeviceIndex>1</DeviceIndex><SerialNumber>CHR-04301-1186</SerialNumber><EBNVersion>3.0.3.80</EBNVersion><FirmwareVersion>1.33</FirmwareVersion><APIVersion>1.33</APIVersion><USBHostControllerVersion>2.0</USBHostControllerVersion><USBConnectionRoute>USB#ROOT_HUB20#4&f63975&0#{f18a0e88-c30c-11d0-8815-00a0c906bed8} + USB#VID_8087&PID_0024#5&365d106a&0&1#{f18a0e88-c30c-11d0-8815-00a0c906bed8}(1) + VID_2266&PID_0007(2)</USBConnectionRoute></ChronosDeviceInfo>;"<?xml version=""1.0""?>\n<Clock xmlns:dt=""urn:schemas-microsoft-com:datatypes""><Description dt:dt=""string"">E-Prime Primary Realtime Clock</Description><StartTime><Timestamp dt:dt=""int"">0</Timestamp><DateUtc dt:dt=""string"">2013-09-12T06:53:53Z</DateUtc></StartTime><FrequencyChanges><FrequencyChange><Frequency dt:dt=""r8"">3312832</Frequency><Timestamp dt:dt=""r8"">12685803273</Timestamp><Current dt:dt=""r8"">0</Current><DateUtc dt:dt=""string"">2013-09-12T06:53:53Z</DateUtc></FrequencyChange></FrequencyChanges></Clock>\n";EXP2.2_290421-100020-1;59.951;1.0.0.347;1;Chronos;-198517043;Full;3.0.3.80;3.0.3.80;09/12/2013;12/09/2013 06:53;08:53:53;3.0.3.82;1;Chronos;Chronos;1;1;1;Training;Generalbloc;;;Chronos;pretest;;1;;;;;;;TRAININGVV;SpatialTaskTraining;1;1;1;Chronos;;;;;;;;;;;;;;;;;;;;;;;;;;;;;;3;1;1;3;5;blocVVstimTraining;LISTVVRANDOM1;VV_290421/895.png;VV_290421/900.png;0;;Chronos;-999999;0;94488;0;1;1846;96334
EXP2.2_290421;100020;1;Chronos;<ChronosDeviceInfo><FriendlyName>MyChronos</FriendlyName><DeviceIndex>1</DeviceIndex><SerialNumber>CHR-04301-1186</SerialNumber><EBNVersion>3.0.3.80</EBNVersion><FirmwareVersion>1.33</FirmwareVersion><APIVersion>1.33</APIVersion><USBHostControllerVersion>2.0</USBHostControllerVersion><USBConnectionRoute>USB#ROOT_HUB20#4&f63975&0#{f18a0e88-c30c-11d0-8815-00a0c906bed8} + USB#VID_8087&PID_0024#5&365d106a&0&1#{f18a0e88-c30c-11d0-8815-00a0c906bed8}(1) + VID_2266&PID_0007(2)</USBConnectionRoute></ChronosDeviceInfo>;"<?xml version=""1.0""?>\n<Clock xmlns:dt=""urn:schemas-microsoft-com:datatypes""><Description dt:dt=""string"">E-Prime Primary Realtime Clock</Description><StartTime><Timestamp dt:dt=""int"">0</Timestamp><DateUtc dt:dt=""string"">2013-09-12T06:53:53Z</DateUtc></StartTime><FrequencyChanges><FrequencyChange><Frequency dt:dt=""r8"">3312832</Frequency><Timestamp dt:dt=""r8"">12685803273</Timestamp><Current dt:dt=""r8"">0</Current><DateUtc dt:dt=""string"">2013-09-12T06:53:53Z</DateUtc></FrequencyChange></FrequencyChanges></Clock>\n";EXP2.2_290421-100020-1;59.951;1.0.0.347;1;Chronos;-198517043;Full;3.0.3.80;3.0.3.80;09/12/2013;12/09/2013 06:53;08:53:53;3.0.3.82;1;Chronos;Chronos;1;1;1;Training;Generalbloc;;;Chronos;pretest;;1;;;;;;;TRAININGVV;SpatialTaskTraining;1;1;1;Chronos;;;;;;;;;;;;;;;;;;;;;;;;;;;;;;4;1;1;4;7;blocVVstimTraining;LISTVVRANDOM1;VV_290421/905.png;VV_290421/910.png;0;;Chronos;-999999;0;98358;0;5;1160;99518
EXP2.2_290421;100020;1;Chronos;<ChronosDeviceInfo><FriendlyName>MyChronos</FriendlyName><DeviceIndex>1</DeviceIndex><SerialNumber>CHR-04301-1186</SerialNumber><EBNVersion>3.0.3.80</EBNVersion><FirmwareVersion>1.33</FirmwareVersion><APIVersion>1.33</APIVersion><USBHostControllerVersion>2.0</USBHostControllerVersion><USBConnectionRoute>USB#ROOT_HUB20#4&f63975&0#{f18a0e88-c30c-11d0-8815-00a0c906bed8} + USB#VID_8087&PID_0024#5&365d106a&0&1#{f18a0e88-c30c-11d0-8815-00a0c906bed8}(1) + VID_2266&PID_0007(2)</USBConnectionRoute></ChronosDeviceInfo>;"<?xml version=""1.0""?>\n<Clock xmlns:dt=""urn:schemas-microsoft-com:datatypes""><Description dt:dt=""string"">E-Prime Primary Realtime Clock</Description><StartTime><Timestamp dt:dt=""int"">0</Timestamp><DateUtc dt:dt=""string"">2013-09-12T06:53:53Z</DateUtc></StartTime><FrequencyChanges><FrequencyChange><Frequency dt:dt=""r8"">3312832</Frequency><Timestamp dt:dt=""r8"">12685803273</Timestamp><Current dt:dt=""r8"">0</Current><DateUtc dt:dt=""string"">2013-09-12T06:53:53Z</DateUtc></FrequencyChange></FrequencyChanges></Clock>\n";EXP2.2_290421-100020-1;59.951;1.0.0.347;1;Chronos;-198517043;Full;3.0.3.80;3.0.3.80;09/12/2013;12/09/2013 06:53;08:53:53;3.0.3.82;1;Chronos;Chronos;1;1;1;Training;Generalbloc;;;Chronos;pretest;;1;;;;;;;TRAININGVV;SpatialTaskTraining;1;1;1;Chronos;;;;;;;;;;;;;;;;;;;;;;;;;;;;;;5;1;1;5;9;blocVVstimTraining;LISTVVRANDOM1;VV_290421/915.png;VV_290421/920.png;0;;Chronos;-999999;1;101544;0;5;669;102213
EXP2.2_290421;100020;1;Chronos;<ChronosDeviceInfo><FriendlyName>MyChronos</FriendlyName><DeviceIndex>1</DeviceIndex><SerialNumber>CHR-04301-1186</SerialNumber><EBNVersion>3.0.3.80</EBNVersion><FirmwareVersion>1.33</FirmwareVersion><APIVersion>1.33</APIVersion><USBHostControllerVersion>2.0</USBHostControllerVersion><USBConnectionRoute>USB#ROOT_HUB20#4&f63975&0#{f18a0e88-c30c-11d0-8815-00a0c906bed8} + USB#VID_8087&PID_0024#5&365d106a&0&1#{f18a0e88-c30c-11d0-8815-00a0c906bed8}(1) + VID_2266&PID_0007(2)</USBConnectionRoute></ChronosDeviceInfo>;"<?xml version=""1.0""?>\n<Clock xmlns:dt=""urn:schemas-microsoft-com:datatypes""><Description dt:dt=""string"">E-Prime Primary Realtime Clock</Description><StartTime><Timestamp dt:dt=""int"">0</Timestamp><DateUtc dt:dt=""string"">2013-09-12T06:53:53Z</DateUtc></StartTime><FrequencyChanges><FrequencyChange><Frequency dt:dt=""r8"">3312832</Frequency><Timestamp dt:dt=""r8"">12685803273</Timestamp><Current dt:dt=""r8"">0</Current><DateUtc dt:dt=""string"">2013-09-12T06:53:53Z</DateUtc></FrequencyChange></FrequencyChanges></Clock>\n";EXP2.2_290421-100020-1;59.951;1.0.0.347;1;Chronos;-198517043;Full;3.0.3.80;3.0.3.80;09/12/2013;12/09/2013 06:53;08:53:53;3.0.3.82;1;Chronos;Chronos;1;1;1;Training;Generalbloc;;;Chronos;pretest;;1;;;;;;;TRAININGVV;SpatialTaskTraining;1;1;1;Chronos;;;;;;;;;;;;;;;;;;;;;;;;;;;;;;6;1;1;6;11;blocVVstimTraining;LISTVVRANDOM1;VV_290421/925.png;VV_290421/875.png;0;;Chronos;-999999;0;104246;0;1;725;104971
EXP2.2_290421;100020;1;Chronos;<ChronosDeviceInfo><FriendlyName>MyChronos</FriendlyName><DeviceIndex>1</DeviceIndex><SerialNumber>CHR-04301-1186</SerialNumber><EBNVersion>3.0.3.80</EBNVersion><FirmwareVersion>1.33</FirmwareVersion><APIVersion>1.33</APIVersion><USBHostControllerVersion>2.0</USBHostControllerVersion><USBConnectionRoute>USB#ROOT_HUB20#4&f63975&0#{f18a0e88-c30c-11d0-8815-00a0c906bed8} + USB#VID_8087&PID_0024#5&365d106a&0&1#{f18a0e88-c30c-11d0-8815-00a0c906bed8}(1) + VID_2266&PID_0007(2)</USBConnectionRoute></ChronosDeviceInfo>;"<?xml version=""1.0""?>\n<Clock xmlns:dt=""urn:schemas-microsoft-com:datatypes""><Description dt:dt=""string"">E-Prime Primary Realtime Clock</Description><StartTime><Timestamp dt:dt=""int"">0</Timestamp><DateUtc dt:dt=""string"">2013-09-12T06:53:53Z</DateUtc></StartTime><FrequencyChanges><FrequencyChange><Frequency dt:dt=""r8"">3312832</Frequency><Timestamp dt:dt=""r8"">12685803273</Timestamp><Current dt:dt=""r8"">0</Current><DateUtc dt:dt=""string"">2013-09-12T06:53:53Z</DateUtc></FrequencyChange></FrequencyChanges></Clock>\n";EXP2.2_290421-100020-1;59.951;1.0.0.347;1;Chronos;-198517043;Full;3.0.3.80;3.0.3.80;09/12/2013;12/09/2013 06:53;08:53:53;3.0.3.82;2;Chronos;;2;1;2;TESTVV;Generalbloc;;;;pretest;Chronos;1;1;VV_290421/890.png;4;1;1;-10;blocVVstim;listVVTrial;;;;Chronos;0;;0;1;164813;200;;0;0;1;1;Chronos;0;0;165013;300;1;471;165484;1;1;Chronos;0;0;165313;0;1;171;165484;;;;;;;;;;;;;;;;;;;
EXP2.2_290421;100020;1;Chronos;<ChronosDeviceInfo><FriendlyName>MyChronos</FriendlyName><DeviceIndex>1</DeviceIndex><SerialNumber>CHR-04301-1186</SerialNumber><EBNVersion>3.0.3.80</EBNVersion><FirmwareVersion>1.33</FirmwareVersion><APIVersion>1.33</APIVersion><USBHostControllerVersion>2.0</USBHostControllerVersion><USBConnectionRoute>USB#ROOT_HUB20#4&f63975&0#{f18a0e88-c30c-11d0-8815-00a0c906bed8} + USB#VID_8087&PID_0024#5&365d106a&0&1#{f18a0e88-c30c-11d0-8815-00a0c906bed8}(1) + VID_2266&PID_0007(2)</USBConnectionRoute></ChronosDeviceInfo>;"<?xml version=""1.0""?>\n<Clock xmlns:dt=""urn:schemas-microsoft-com:datatypes""><Description dt:dt=""string"">E-Prime Primary Realtime Clock</Description><StartTime><Timestamp dt:dt=""int"">0</Timestamp><DateUtc dt:dt=""string"">2013-09-12T06:53:53Z</DateUtc></StartTime><FrequencyChanges><FrequencyChange><Frequency dt:dt=""r8"">3312832</Frequency><Timestamp dt:dt=""r8"">12685803273</Timestamp><Current dt:dt=""r8"">0</Current><DateUtc dt:dt=""string"">2013-09-12T06:53:53Z</DateUtc></FrequencyChange></FrequencyChanges></Clock>\n";EXP2.2_290421-100020-1;59.951;1.0.0.347;1;Chronos;-198517043;Full;3.0.3.80;3.0.3.80;09/12/2013;12/09/2013 06:53;08:53:53;3.0.3.82;2;Chronos;;2;1;2;TESTVV;Generalbloc;;;;pretest;Chronos;2;1;VV_290421/880.png;2;1;2;-20;blocVVstim;listVVTrial;;;;Chronos;0;;0;1;167015;200;;0;0;1;1;Chronos;0;0;167215;0;1;205;167420;0;;;-999999;0;0;0;;0;0;;;;;;;;;;;;;;;;;;;
EXP2.2_290421;100020;1;Chronos;<ChronosDeviceInfo><FriendlyName>MyChronos</FriendlyName><DeviceIndex>1</DeviceIndex><SerialNumber>CHR-04301-1186</SerialNumber><EBNVersion>3.0.3.80</EBNVersion><FirmwareVersion>1.33</FirmwareVersion><APIVersion>1.33</APIVersion><USBHostControllerVersion>2.0</USBHostControllerVersion><USBConnectionRoute>USB#ROOT_HUB20#4&f63975&0#{f18a0e88-c30c-11d0-8815-00a0c906bed8} + USB#VID_8087&PID_0024#5&365d106a&0&1#{f18a0e88-c30c-11d0-8815-00a0c906bed8}(1) + VID_2266&PID_0007(2)</USBConnectionRoute></ChronosDeviceInfo>;"<?xml version=""1.0""?>\n<Clock xmlns:dt=""urn:schemas-microsoft-com:datatypes""><Description dt:dt=""string"">E-Prime Primary Realtime Clock</Description><StartTime><Timestamp dt:dt=""int"">0</Timestamp><DateUtc dt:dt=""string"">2013-09-12T06:53:53Z</DateUtc></StartTime><FrequencyChanges><FrequencyChange><Frequency dt:dt=""r8"">3312832</Frequency><Timestamp dt:dt=""r8"">12685803273</Timestamp><Current dt:dt=""r8"">0</Current><DateUtc dt:dt=""string"">2013-09-12T06:53:53Z</DateUtc></FrequencyChange></FrequencyChanges></Clock>\n";EXP2.2_290421-100020-1;59.951;1.0.0.347;1;Chronos;-198517043;Full;3.0.3.80;3.0.3.80;09/12/2013;12/09/2013 06:53;08:53:53;3.0.3.82;2;Chronos;;2;1;2;TESTVV;Generalbloc;;;;pretest;Chronos;3;1;VV_290421/895.png;5;1;3;-5;blocVVstim;listVVTrial;;;;Chronos;0;;0;2;168950;200;;0;0;1;1;Chronos;0;0;169150;300;1;885;170035;1;1;Chronos;0;0;169450;0;1;585;170035;;;;;;;;;;;;;;;;;;;
EXP2.2_290421;100020;1;Chronos;<ChronosDeviceInfo><FriendlyName>MyChronos</FriendlyName><DeviceIndex>1</DeviceIndex><SerialNumber>CHR-04301-1186</SerialNumber><EBNVersion>3.0.3.80</EBNVersion><FirmwareVersion>1.33</FirmwareVersion><APIVersion>1.33</APIVersion><USBHostControllerVersion>2.0</USBHostControllerVersion><USBConnectionRoute>USB#ROOT_HUB20#4&f63975&0#{f18a0e88-c30c-11d0-8815-00a0c906bed8} + USB#VID_8087&PID_0024#5&365d106a&0&1#{f18a0e88-c30c-11d0-8815-00a0c906bed8}(1) + VID_2266&PID_0007(2)</USBConnectionRoute></ChronosDeviceInfo>;"<?xml version=""1.0""?>\n<Clock xmlns:dt=""urn:schemas-microsoft-com:datatypes""><Description dt:dt=""string"">E-Prime Primary Realtime Clock</Description><StartTime><Timestamp dt:dt=""int"">0</Timestamp><DateUtc dt:dt=""string"">2013-09-12T06:53:53Z</DateUtc></StartTime><FrequencyChanges><FrequencyChange><Frequency dt:dt=""r8"">3312832</Frequency><Timestamp dt:dt=""r8"">12685803273</Timestamp><Current dt:dt=""r8"">0</Current><DateUtc dt:dt=""string"">2013-09-12T06:53:53Z</DateUtc></FrequencyChange></FrequencyChanges></Clock>\n";EXP2.2_290421-100020-1;59.951;1.0.0.347;1;Chronos;-198517043;Full;3.0.3.80;3.0.3.80;09/12/2013;12/09/2013 06:53;08:53:53;3.0.3.82;2;Chronos;;2;1;2;TESTVV;Generalbloc;;;;pretest;Chronos;4;5;VV_290421/925.png;11;1;4;25;blocVVstim;listVVTrial;;;;Chronos;0;;0;2;171569;200;;0;0;1;5;Chronos;0;0;171769;300;5;356;172125;1;5;Chronos;0;0;172069;0;5;56;172125;;;;;;;;;;;;;;;;;;;
EXP2.2_290421;100020;1;Chronos;<ChronosDeviceInfo><FriendlyName>MyChronos</FriendlyName><DeviceIndex>1</DeviceIndex><SerialNumber>CHR-04301-1186</SerialNumber><EBNVersion>3.0.3.80</EBNVersion><FirmwareVersion>1.33</FirmwareVersion><APIVersion>1.33</APIVersion><USBHostControllerVersion>2.0</USBHostControllerVersion><USBConnectionRoute>USB#ROOT_HUB20#4&f63975&0#{f18a0e88-c30c-11d0-8815-00a0c906bed8} + USB#VID_8087&PID_0024#5&365d106a&0&1#{f18a0e88-c30c-11d0-8815-00a0c906bed8}(1) + VID_2266&PID_0007(2)</USBConnectionRoute></ChronosDeviceInfo>;"<?xml version=""1.0""?>\n<Clock xmlns:dt=""urn:schemas-microsoft-com:datatypes""><Description dt:dt=""string"">E-Prime Primary Realtime Clock</Description><StartTime><Timestamp dt:dt=""int"">0</Timestamp><DateUtc dt:dt=""string"">2013-09-12T06:53:53Z</DateUtc></StartTime><FrequencyChanges><FrequencyChange><Frequency dt:dt=""r8"">3312832</Frequency><Timestamp dt:dt=""r8"">12685803273</Timestamp><Current dt:dt=""r8"">0</Current><DateUtc dt:dt=""string"">2013-09-12T06:53:53Z</DateUtc></FrequencyChange></FrequencyChanges></Clock>\n";EXP2.2_290421-100020-1;59.951;1.0.0.347;1;Chronos;-198517043;Full;3.0.3.80;3.0.3.80;09/12/2013;12/09/2013 06:53;08:53:53;3.0.3.82;2;Chronos;;2;1;2;TESTVV;Generalbloc;;;;pretest;Chronos;5;1;VV_290421/895.png;5;1;5;-5;blocVVstim;listVVTrial;;;;Chronos;0;;0;2;173654;200;;0;0;1;1;Chronos;0;0;173854;300;1;464;174318;1;1;Chronos;0;0;174154;0;1;164;174318;;;;;;;;;;;;;;;;;;;
EXP2.2_290421;100020;1;Chronos;<ChronosDeviceInfo><FriendlyName>MyChronos</FriendlyName><DeviceIndex>1</DeviceIndex><SerialNumber>CHR-04301-1186</SerialNumber><EBNVersion>3.0.3.80</EBNVersion><FirmwareVersion>1.33</FirmwareVersion><APIVersion>1.33</APIVersion><USBHostControllerVersion>2.0</USBHostControllerVersion><USBConnectionRoute>USB#ROOT_HUB20#4&f63975&0#{f18a0e88-c30c-11d0-8815-00a0c906bed8} + USB#VID_8087&PID_0024#5&365d106a&0&1#{f18a0e88-c30c-11d0-8815-00a0c906bed8}(1) + VID_2266&PID_0007(2)</USBConnectionRoute></ChronosDeviceInfo>;"<?xml version=""1.0""?>\n<Clock xmlns:dt=""urn:schemas-microsoft-com:datatypes""><Description dt:dt=""string"">E-Prime Primary Realtime Clock</Description><StartTime><Timestamp dt:dt=""int"">0</Timestamp><DateUtc dt:dt=""string"">2013-09-12T06:53:53Z</DateUtc></StartTime><FrequencyChanges><FrequencyChange><Frequency dt:dt=""r8"">3312832</Frequency><Timestamp dt:dt=""r8"">12685803273</Timestamp><Current dt:dt=""r8"">0</Current><DateUtc dt:dt=""string"">2013-09-12T06:53:53Z</DateUtc></FrequencyChange></FrequencyChanges></Clock>\n";EXP2.2_290421-100020-1;59.951;1.0.0.347;1;Chronos;-198517043;Full;3.0.3.80;3.0.3.80;09/12/2013;12/09/2013 06:53;08:53:53;3.0.3.82;2;Chronos;;2;1;2;TESTVV;Generalbloc;;;;pretest;Chronos;6;5;VV_290421/905.png;7;1;6;5;blocVVstim;listVVTrial;;;;Chronos;0;;0;1;175855;201;;0;0;0;5;Chronos;0;1;176056;300;1;766;176822;0;5;Chronos;0;0;176356;0;1;466;176822;;;;;;;;;;;;;;;;;;;
EXP2.2_290421;100020;1;Chronos;<ChronosDeviceInfo><FriendlyName>MyChronos</FriendlyName><DeviceIndex>1</DeviceIndex><SerialNumber>CHR-04301-1186</SerialNumber><EBNVersion>3.0.3.80</EBNVersion><FirmwareVersion>1.33</FirmwareVersion><APIVersion>1.33</APIVersion><USBHostControllerVersion>2.0</USBHostControllerVersion><USBConnectionRoute>USB#ROOT_HUB20#4&f63975&0#{f18a0e88-c30c-11d0-8815-00a0c906bed8} + USB#VID_8087&PID_0024#5&365d106a&0&1#{f18a0e88-c30c-11d0-8815-00a0c906bed8}(1) + VID_2266&PID_0007(2)</USBConnectionRoute></ChronosDeviceInfo>;"<?xml version=""1.0""?>\n<Clock xmlns:dt=""urn:schemas-microsoft-com:datatypes""><Description dt:dt=""string"">E-Prime Primary Realtime Clock</Description><StartTime><Timestamp dt:dt=""int"">0</Timestamp><DateUtc dt:dt=""string"">2013-09-12T06:53:53Z</DateUtc></StartTime><FrequencyChanges><FrequencyChange><Frequency dt:dt=""r8"">3312832</Frequency><Timestamp dt:dt=""r8"">12685803273</Timestamp><Current dt:dt=""r8"">0</Current><DateUtc dt:dt=""string"">2013-09-12T06:53:53Z</DateUtc></FrequencyChange></FrequencyChanges></Clock>\n";EXP2.2_290421-100020-1;59.951;1.0.0.347;1;Chronos;-198517043;Full;3.0.3.80;3.0.3.80;09/12/2013;12/09/2013 06:53;08:53:53;3.0.3.82;2;Chronos;;2;1;2;TESTVV;Generalbloc;;;;pretest;Chronos;7;5;VV_290421/910.png;8;1;7;10;blocVVstim;listVVTrial;;;;Chronos;0;;1;1;178357;201;;0;0;0;5;Chronos;0;1;178558;300;1;1074;179632;0;5;Chronos;0;0;178858;0;1;774;179632;;;;;;;;;;;;;;;;;;;
EXP2.2_290421;100020;1;Chronos;<ChronosDeviceInfo><FriendlyName>MyChronos</FriendlyName><DeviceIndex>1</DeviceIndex><SerialNumber>CHR-04301-1186</SerialNumber><EBNVersion>3.0.3.80</EBNVersion><FirmwareVersion>1.33</FirmwareVersion><APIVersion>1.33</APIVersion><USBHostControllerVersion>2.0</USBHostControllerVersion><USBConnectionRoute>USB#ROOT_HUB20#4&f63975&0#{f18a0e88-c30c-11d0-8815-00a0c906bed8} + USB#VID_8087&PID_0024#5&365d106a&0&1#{f18a0e88-c30c-11d0-8815-00a0c906bed8}(1) + VID_2266&PID_0007(2)</USBConnectionRoute></ChronosDeviceInfo>;"<?xml version=""1.0""?>\n<Clock xmlns:dt=""urn:schemas-microsoft-com:datatypes""><Description dt:dt=""string"">E-Prime Primary Realtime Clock</Description><StartTime><Timestamp dt:dt=""int"">0</Timestamp><DateUtc dt:dt=""string"">2013-09-12T06:53:53Z</DateUtc></StartTime><FrequencyChanges><FrequencyChange><Frequency dt:dt=""r8"">3312832</Frequency><Timestamp dt:dt=""r8"">12685803273</Timestamp><Current dt:dt=""r8"">0</Current><DateUtc dt:dt=""string"">2013-09-12T06:53:53Z</DateUtc></FrequencyChange></FrequencyChanges></Clock>\n";EXP2.2_290421-100020-1;59.951;1.0.0.347;1;Chronos;-198517043;Full;3.0.3.80;3.0.3.80;09/12/2013;12/09/2013 06:53;08:53:53;3.0.3.82;2;Chronos;;2;1;2;TESTVV;Generalbloc;;;;pretest;Chronos;8;5;VV_290421/920.png;10;1;8;20;blocVVstim;listVVTrial;;;;Chronos;0;;0;1;181160;200;;0;0;1;5;Chronos;0;0;181360;300;5;466;181826;1;5;Chronos;0;0;181660;0;5;166;181826;;;;;;;;;;;;;;;;;;;
EXP2.2_290421;100020;1;Chronos;<ChronosDeviceInfo><FriendlyName>MyChronos</FriendlyName><DeviceIndex>1</DeviceIndex><SerialNumber>CHR-04301-1186</SerialNumber><EBNVersion>3.0.3.80</EBNVersion><FirmwareVersion>1.33</FirmwareVersion><APIVersion>1.33</APIVersion><USBHostControllerVersion>2.0</USBHostControllerVersion><USBConnectionRoute>USB#ROOT_HUB20#4&f63975&0#{f18a0e88-c30c-11d0-8815-00a0c906bed8} + USB#VID_8087&PID_0024#5&365d106a&0&1#{f18a0e88-c30c-11d0-8815-00a0c906bed8}(1) + VID_2266&PID_0007(2)</USBConnectionRoute></ChronosDeviceInfo>;"<?xml version=""1.0""?>\n<Clock xmlns:dt=""urn:schemas-microsoft-com:datatypes""><Description dt:dt=""string"">E-Prime Primary Realtime Clock</Description><StartTime><Timestamp dt:dt=""int"">0</Timestamp><DateUtc dt:dt=""string"">2013-09-12T06:53:53Z</DateUtc></StartTime><FrequencyChanges><FrequencyChange><Frequency dt:dt=""r8"">3312832</Frequency><Timestamp dt:dt=""r8"">12685803273</Timestamp><Current dt:dt=""r8"">0</Current><DateUtc dt:dt=""string"">2013-09-12T06:53:53Z</DateUtc></FrequencyChange></FrequencyChanges></Clock>\n";EXP2.2_290421-100020-1;59.951;1.0.0.347;1;Chronos;-198517043;Full;3.0.3.80;3.0.3.80;09/12/2013;12/09/2013 06:53;08:53:53;3.0.3.82;2;Chronos;;2;1;2;TESTVV;Generalbloc;;;;pretest;Chronos;9;1;VV_290421/890.png;4;1;9;-10;blocVVstim;listVVTrial;;;;Chronos;0;;0;2;183362;200;;0;0;1;1;Chronos;0;0;183562;300;1;380;183942;1;1;Chronos;0;0;183862;0;1;80;183942;;;;;;;;;;;;;;;;;;;
EXP2.2_290421;100020;1;Chronos;<ChronosDeviceInfo><FriendlyName>MyChronos</FriendlyName><DeviceIndex>1</DeviceIndex><SerialNumber>CHR-04301-1186</SerialNumber><EBNVersion>3.0.3.80</EBNVersion><FirmwareVersion>1.33</FirmwareVersion><APIVersion>1.33</APIVersion><USBHostControllerVersion>2.0</USBHostControllerVersion><USBConnectionRoute>USB#ROOT_HUB20#4&f63975&0#{f18a0e88-c30c-11d0-8815-00a0c906bed8} + USB#VID_8087&PID_0024#5&365d106a&0&1#{f18a0e88-c30c-11d0-8815-00a0c906bed8}(1) + VID_2266&PID_0007(2)</USBConnectionRoute></ChronosDeviceInfo>;"<?xml version=""1.0""?>\n<Clock xmlns:dt=""urn:schemas-microsoft-com:datatypes""><Description dt:dt=""string"">E-Prime Primary Realtime Clock</Description><StartTime><Timestamp dt:dt=""int"">0</Timestamp><DateUtc dt:dt=""string"">2013-09-12T06:53:53Z</DateUtc></StartTime><FrequencyChanges><FrequencyChange><Frequency dt:dt=""r8"">3312832</Frequency><Timestamp dt:dt=""r8"">12685803273</Timestamp><Current dt:dt=""r8"">0</Current><DateUtc dt:dt=""string"">2013-09-12T06:53:53Z</DateUtc></FrequencyChange></FrequencyChanges></Clock>\n";EXP2.2_290421-100020-1;59.951;1.0.0.347;1;Chronos;-198517043;Full;3.0.3.80;3.0.3.80;09/12/2013;12/09/2013 06:53;08:53:53;3.0.3.82;2;Chronos;;2;1;2;TESTVV;Generalbloc;;;;pretest;Chronos;10;1;VV_290421/895.png;5;1;10;-5;blocVVstim;listVVTrial;;;;Chronos;0;;0;1;185463;201;;0;0;1;1;Chronos;0;1;185664;300;1;489;186153;1;1;Chronos;0;0;185964;0;1;189;186153;;;;;;;;;;;;;;;;;;;
EXP2.2_290421;100020;1;Chronos;<ChronosDeviceInfo><FriendlyName>MyChronos</FriendlyName><DeviceIndex>1</DeviceIndex><SerialNumber>CHR-04301-1186</SerialNumber><EBNVersion>3.0.3.80</EBNVersion><FirmwareVersion>1.33</FirmwareVersion><APIVersion>1.33</APIVersion><USBHostControllerVersion>2.0</USBHostControllerVersion><USBConnectionRoute>USB#ROOT_HUB20#4&f63975&0#{f18a0e88-c30c-11d0-8815-00a0c906bed8} + USB#VID_8087&PID_0024#5&365d106a&0&1#{f18a0e88-c30c-11d0-8815-00a0c906bed8}(1) + VID_2266&PID_0007(2)</USBConnectionRoute></ChronosDeviceInfo>;"<?xml version=""1.0""?>\n<Clock xmlns:dt=""urn:schemas-microsoft-com:datatypes""><Description dt:dt=""string"">E-Prime Primary Realtime Clock</Description><StartTime><Timestamp dt:dt=""int"">0</Timestamp><DateUtc dt:dt=""string"">2013-09-12T06:53:53Z</DateUtc></StartTime><FrequencyChanges><FrequencyChange><Frequency dt:dt=""r8"">3312832</Frequency><Timestamp dt:dt=""r8"">12685803273</Timestamp><Current dt:dt=""r8"">0</Current><DateUtc dt:dt=""string"">2013-09-12T06:53:53Z</DateUtc></FrequencyChange></FrequencyChanges></Clock>\n";EXP2.2_290421-100020-1;59.951;1.0.0.347;1;Chronos;-198517043;Full;3.0.3.80;3.0.3.80;09/12/2013;12/09/2013 06:53;08:53:53;3.0.3.82;2;Chronos;;2;1;2;TESTVV;Generalbloc;;;;pretest;Chronos;11;5;VV_290421/915.png;9;1;11;15;blocVVstim;listVVTrial;;;;Chronos;0;;0;1;187682;200;;0;0;1;5;Chronos;0;0;187882;300;5;498;188380;1;5;Chronos;0;0;188182;0;5;198;188380;;;;;;;;;;;;;;;;;;;
EXP2.2_290421;100020;1;Chronos;<ChronosDeviceInfo><FriendlyName>MyChronos</FriendlyName><DeviceIndex>1</DeviceIndex><SerialNumber>CHR-04301-1186</SerialNumber><EBNVersion>3.0.3.80</EBNVersion><FirmwareVersion>1.33</FirmwareVersion><APIVersion>1.33</APIVersion><USBHostControllerVersion>2.0</USBHostControllerVersion><USBConnectionRoute>USB#ROOT_HUB20#4&f63975&0#{f18a0e88-c30c-11d0-8815-00a0c906bed8} + USB#VID_8087&PID_0024#5&365d106a&0&1#{f18a0e88-c30c-11d0-8815-00a0c906bed8}(1) + VID_2266&PID_0007(2)</USBConnectionRoute></ChronosDeviceInfo>;"<?xml version=""1.0""?>\n<Clock xmlns:dt=""urn:schemas-microsoft-com:datatypes""><Description dt:dt=""string"">E-Prime Primary Realtime Clock</Description><StartTime><Timestamp dt:dt=""int"">0</Timestamp><DateUtc dt:dt=""string"">2013-09-12T06:53:53Z</DateUtc></StartTime><FrequencyChanges><FrequencyChange><Frequency dt:dt=""r8"">3312832</Frequency><Timestamp dt:dt=""r8"">12685803273</Timestamp><Current dt:dt=""r8"">0</Current><DateUtc dt:dt=""string"">2013-09-12T06:53:53Z</DateUtc></FrequencyChange></FrequencyChanges></Clock>\n";EXP2.2_290421-100020-1;59.951;1.0.0.347;1;Chronos;-198517043;Full;3.0.3.80;3.0.3.80;09/12/2013;12/09/2013 06:53;08:53:53;3.0.3.82;2;Chronos;;2;1;2;TESTVV;Generalbloc;;;;pretest;Chronos;12;1;VV_290421/895.png;5;1;12;-5;blocVVstim;listVVTrial;;;;Chronos;0;;0;1;189900;201;;0;0;1;1;Chronos;0;1;190101;300;1;579;190680;1;1;Chronos;0;0;190401;0;1;279;190680;;;;;;;;;;;;;;;;;;;
EXP2.2_290421;100020;1;Chronos;<ChronosDeviceInfo><FriendlyName>MyChronos</FriendlyName><DeviceIndex>1</DeviceIndex><SerialNumber>CHR-04301-1186</SerialNumber><EBNVersion>3.0.3.80</EBNVersion><FirmwareVersion>1.33</FirmwareVersion><APIVersion>1.33</APIVersion><USBHostControllerVersion>2.0</USBHostControllerVersion><USBConnectionRoute>USB#ROOT_HUB20#4&f63975&0#{f18a0e88-c30c-11d0-8815-00a0c906bed8} + USB#VID_8087&PID_0024#5&365d106a&0&1#{f18a0e88-c30c-11d0-8815-00a0c906bed8}(1) + VID_2266&PID_0007(2)</USBConnectionRoute></ChronosDeviceInfo>;"<?xml version=""1.0""?>\n<Clock xmlns:dt=""urn:schemas-microsoft-com:datatypes""><Description dt:dt=""string"">E-Prime Primary Realtime Clock</Description><StartTime><Timestamp dt:dt=""int"">0</Timestamp><DateUtc dt:dt=""string"">2013-09-12T06:53:53Z</DateUtc></StartTime><FrequencyChanges><FrequencyChange><Frequency dt:dt=""r8"">3312832</Frequency><Timestamp dt:dt=""r8"">12685803273</Timestamp><Current dt:dt=""r8"">0</Current><DateUtc dt:dt=""string"">2013-09-12T06:53:53Z</DateUtc></FrequencyChange></FrequencyChanges></Clock>\n";EXP2.2_290421-100020-1;59.951;1.0.0.347;1;Chronos;-198517043;Full;3.0.3.80;3.0.3.80;09/12/2013;12/09/2013 06:53;08:53:53;3.0.3.82;2;Chronos;;2;1;2;TESTVV;Generalbloc;;;;pretest;Chronos;13;5;VV_290421/910.png;8;1;13;10;blocVVstim;listVVTrial;;;;Chronos;0;;0;1;192202;200;;0;0;1;5;Chronos;1;0;192402;301;5;592;192994;1;5;Chronos;0;1;192703;0;5;291;192994;;;;;;;;;;;;;;;;;;;
EXP2.2_290421;100020;1;Chronos;<ChronosDeviceInfo><FriendlyName>MyChronos</FriendlyName><DeviceIndex>1</DeviceIndex><SerialNumber>CHR-04301-1186</SerialNumber><EBNVersion>3.0.3.80</EBNVersion><FirmwareVersion>1.33</FirmwareVersion><APIVersion>1.33</APIVersion><USBHostControllerVersion>2.0</USBHostControllerVersion><USBConnectionRoute>USB#ROOT_HUB20#4&f63975&0#{f18a0e88-c30c-11d0-8815-00a0c906bed8} + USB#VID_8087&PID_0024#5&365d106a&0&1#{f18a0e88-c30c-11d0-8815-00a0c906bed8}(1) + VID_2266&PID_0007(2)</USBConnectionRoute></ChronosDeviceInfo>;"<?xml version=""1.0""?>\n<Clock xmlns:dt=""urn:schemas-microsoft-com:datatypes""><Description dt:dt=""string"">E-Prime Primary Realtime Clock</Description><StartTime><Timestamp dt:dt=""int"">0</Timestamp><DateUtc dt:dt=""string"">2013-09-12T06:53:53Z</DateUtc></StartTime><FrequencyChanges><FrequencyChange><Frequency dt:dt=""r8"">3312832</Frequency><Timestamp dt:dt=""r8"">12685803273</Timestamp><Current dt:dt=""r8"">0</Current><DateUtc dt:dt=""string"">2013-09-12T06:53:53Z</DateUtc></FrequencyChange></FrequencyChanges></Clock>\n";EXP2.2_290421-100020-1;59.951;1.0.0.347;1;Chronos;-198517043;Full;3.0.3.80;3.0.3.80;09/12/2013;12/09/2013 06:53;08:53:53;3.0.3.82;2;Chronos;;2;1;2;TESTVV;Generalbloc;;;;pretest;Chronos;14;5;VV_290421/905.png;7;1;14;5;blocVVstim;listVVTrial;;;;Chronos;0;;0;1;194521;200;;0;0;0;5;Chronos;0;0;194721;300;1;366;195087;0;5;Chronos;0;0;195021;0;1;66;195087;;;;;;;;;;;;;;;;;;;
EXP2.2_290421;100020;1;Chronos;<ChronosDeviceInfo><FriendlyName>MyChronos</FriendlyName><DeviceIndex>1</DeviceIndex><SerialNumber>CHR-04301-1186</SerialNumber><EBNVersion>3.0.3.80</EBNVersion><FirmwareVersion>1.33</FirmwareVersion><APIVersion>1.33</APIVersion><USBHostControllerVersion>2.0</USBHostControllerVersion><USBConnectionRoute>USB#ROOT_HUB20#4&f63975&0#{f18a0e88-c30c-11d0-8815-00a0c906bed8} + USB#VID_8087&PID_0024#5&365d106a&0&1#{f18a0e88-c30c-11d0-8815-00a0c906bed8}(1) + VID_2266&PID_0007(2)</USBConnectionRoute></ChronosDeviceInfo>;"<?xml version=""1.0""?>\n<Clock xmlns:dt=""urn:schemas-microsoft-com:datatypes""><Description dt:dt=""string"">E-Prime Primary Realtime Clock</Description><StartTime><Timestamp dt:dt=""int"">0</Timestamp><DateUtc dt:dt=""string"">2013-09-12T06:53:53Z</DateUtc></StartTime><FrequencyChanges><FrequencyChange><Frequency dt:dt=""r8"">3312832</Frequency><Timestamp dt:dt=""r8"">12685803273</Timestamp><Current dt:dt=""r8"">0</Current><DateUtc dt:dt=""string"">2013-09-12T06:53:53Z</DateUtc></FrequencyChange></FrequencyChanges></Clock>\n";EXP2.2_290421-100020-1;59.951;1.0.0.347;1;Chronos;-198517043;Full;3.0.3.80;3.0.3.80;09/12/2013;12/09/2013 06:53;08:53:53;3.0.3.82;2;Chronos;;2;1;2;TESTVV;Generalbloc;;;;pretest;Chronos;15;1;VV_290421/890.png;4;1;15;-10;blocVVstim;listVVTrial;;;;Chronos;0;;0;2;196623;200;;0;0;1;1;Chronos;0;0;196823;0;1;282;197105;0;;;-999999;0;0;0;;0;0;;;;;;;;;;;;;;;;;;;
EXP2.2_290421;100020;1;Chronos;<ChronosDeviceInfo><FriendlyName>MyChronos</FriendlyName><DeviceIndex>1</DeviceIndex><SerialNumber>CHR-04301-1186</SerialNumber><EBNVersion>3.0.3.80</EBNVersion><FirmwareVersion>1.33</FirmwareVersion><APIVersion>1.33</APIVersion><USBHostControllerVersion>2.0</USBHostControllerVersion><USBConnectionRoute>USB#ROOT_HUB20#4&f63975&0#{f18a0e88-c30c-11d0-8815-00a0c906bed8} + USB#VID_8087&PID_0024#5&365d106a&0&1#{f18a0e88-c30c-11d0-8815-00a0c906bed8}(1) + VID_2266&PID_0007(2)</USBConnectionRoute></ChronosDeviceInfo>;"<?xml version=""1.0""?>\n<Clock xmlns:dt=""urn:schemas-microsoft-com:datatypes""><Description dt:dt=""string"">E-Prime Primary Realtime Clock</Description><StartTime><Timestamp dt:dt=""int"">0</Timestamp><DateUtc dt:dt=""string"">2013-09-12T06:53:53Z</DateUtc></StartTime><FrequencyChanges><FrequencyChange><Frequency dt:dt=""r8"">3312832</Frequency><Timestamp dt:dt=""r8"">12685803273</Timestamp><Current dt:dt=""r8"">0</Current><DateUtc dt:dt=""string"">2013-09-12T06:53:53Z</DateUtc></FrequencyChange></FrequencyChanges></Clock>\n";EXP2.2_290421-100020-1;59.951;1.0.0.347;1;Chronos;-198517043;Full;3.0.3.80;3.0.3.80;09/12/2013;12/09/2013 06:53;08:53:53;3.0.3.82;2;Chronos;;2;1;2;TESTVV;Generalbloc;;;;pretest;Chronos;16;5;VV_290421/920.png;10;1;16;20;blocVVstim;listVVTrial;;;;Chronos;0;;0;1;198641;200;;0;0;1;5;Chronos;0;0;198841;300;5;401;199242;1;5;Chronos;0;0;199141;0;5;101;199242;;;;;;;;;;;;;;;;;;;
EXP2.2_290421;100020;1;Chronos;<ChronosDeviceInfo><FriendlyName>MyChronos</FriendlyName><DeviceIndex>1</DeviceIndex><SerialNumber>CHR-04301-1186</SerialNumber><EBNVersion>3.0.3.80</EBNVersion><FirmwareVersion>1.33</FirmwareVersion><APIVersion>1.33</APIVersion><USBHostControllerVersion>2.0</USBHostControllerVersion><USBConnectionRoute>USB#ROOT_HUB20#4&f63975&0#{f18a0e88-c30c-11d0-8815-00a0c906bed8} + USB#VID_8087&PID_0024#5&365d106a&0&1#{f18a0e88-c30c-11d0-8815-00a0c906bed8}(1) + VID_2266&PID_0007(2)</USBConnectionRoute></ChronosDeviceInfo>;"<?xml version=""1.0""?>\n<Clock xmlns:dt=""urn:schemas-microsoft-com:datatypes""><Description dt:dt=""string"">E-Prime Primary Realtime Clock</Description><StartTime><Timestamp dt:dt=""int"">0</Timestamp><DateUtc dt:dt=""string"">2013-09-12T06:53:53Z</DateUtc></StartTime><FrequencyChanges><FrequencyChange><Frequency dt:dt=""r8"">3312832</Frequency><Timestamp dt:dt=""r8"">12685803273</Timestamp><Current dt:dt=""r8"">0</Current><DateUtc dt:dt=""string"">2013-09-12T06:53:53Z</DateUtc></FrequencyChange></FrequencyChanges></Clock>\n";EXP2.2_290421-100020-1;59.951;1.0.0.347;1;Chronos;-198517043;Full;3.0.3.80;3.0.3.80;09/12/2013;12/09/2013 06:53;08:53:53;3.0.3.82;2;Chronos;;2;1;2;TESTVV;Generalbloc;;;;pretest;Chronos;17;5;VV_290421/920.png;10;1;17;20;blocVVstim;listVVTrial;;;;Chronos;0;;0;1;200776;200;;0;0;1;5;Chronos;0;0;200976;300;5;497;201473;1;5;Chronos;1;0;201276;0;5;197;201473;;;;;;;;;;;;;;;;;;;
EXP2.2_290421;100020;1;Chronos;<ChronosDeviceInfo><FriendlyName>MyChronos</FriendlyName><DeviceIndex>1</DeviceIndex><SerialNumber>CHR-04301-1186</SerialNumber><EBNVersion>3.0.3.80</EBNVersion><FirmwareVersion>1.33</FirmwareVersion><APIVersion>1.33</APIVersion><USBHostControllerVersion>2.0</USBHostControllerVersion><USBConnectionRoute>USB#ROOT_HUB20#4&f63975&0#{f18a0e88-c30c-11d0-8815-00a0c906bed8} + USB#VID_8087&PID_0024#5&365d106a&0&1#{f18a0e88-c30c-11d0-8815-00a0c906bed8}(1) + VID_2266&PID_0007(2)</USBConnectionRoute></ChronosDeviceInfo>;"<?xml version=""1.0""?>\n<Clock xmlns:dt=""urn:schemas-microsoft-com:datatypes""><Description dt:dt=""string"">E-Prime Primary Realtime Clock</Description><StartTime><Timestamp dt:dt=""int"">0</Timestamp><DateUtc dt:dt=""string"">2013-09-12T06:53:53Z</DateUtc></StartTime><FrequencyChanges><FrequencyChange><Frequency dt:dt=""r8"">3312832</Frequency><Timestamp dt:dt=""r8"">12685803273</Timestamp><Current dt:dt=""r8"">0</Current><DateUtc dt:dt=""string"">2013-09-12T06:53:53Z</DateUtc></FrequencyChange></FrequencyChanges></Clock>\n";EXP2.2_290421-100020-1;59.951;1.0.0.347;1;Chronos;-198517043;Full;3.0.3.80;3.0.3.80;09/12/2013;12/09/2013 06:53;08:53:53;3.0.3.82;2;Chronos;;2;1;2;TESTVV;Generalbloc;;;;pretest;Chronos;18;5;VV_290421/910.png;8;1;18;10;blocVVstim;listVVTrial;;;;Chronos;0;;0;2;202995;200;;0;0;0;5;Chronos;0;0;203195;300;1;1303;204498;0;5;Chronos;0;0;203495;0;1;1003;204498;;;;;;;;;;;;;;;;;;;
EXP2.2_290421;100020;1;Chronos;<ChronosDeviceInfo><FriendlyName>MyChronos</FriendlyName><DeviceIndex>1</DeviceIndex><SerialNumber>CHR-04301-1186</SerialNumber><EBNVersion>3.0.3.80</EBNVersion><FirmwareVersion>1.33</FirmwareVersion><APIVersion>1.33</APIVersion><USBHostControllerVersion>2.0</USBHostControllerVersion><USBConnectionRoute>USB#ROOT_HUB20#4&f63975&0#{f18a0e88-c30c-11d0-8815-00a0c906bed8} + USB#VID_8087&PID_0024#5&365d106a&0&1#{f18a0e88-c30c-11d0-8815-00a0c906bed8}(1) + VID_2266&PID_0007(2)</USBConnectionRoute></ChronosDeviceInfo>;"<?xml version=""1.0""?>\n<Clock xmlns:dt=""urn:schemas-microsoft-com:datatypes""><Description dt:dt=""string"">E-Prime Primary Realtime Clock</Description><StartTime><Timestamp dt:dt=""int"">0</Timestamp><DateUtc dt:dt=""string"">2013-09-12T06:53:53Z</DateUtc></StartTime><FrequencyChanges><FrequencyChange><Frequency dt:dt=""r8"">3312832</Frequency><Timestamp dt:dt=""r8"">12685803273</Timestamp><Current dt:dt=""r8"">0</Current><DateUtc dt:dt=""string"">2013-09-12T06:53:53Z</DateUtc></FrequencyChange></FrequencyChanges></Clock>\n";EXP2.2_290421-100020-1;59.951;1.0.0.347;1;Chronos;-198517043;Full;3.0.3.80;3.0.3.80;09/12/2013;12/09/2013 06:53;08:53:53;3.0.3.82;2;Chronos;;2;1;2;TESTVV;Generalbloc;;;;pretest;Chronos;19;15;VV_290421/900.png;6;1;19;0;blocVVstim;listVVTrial;;;;Chronos;0;;0;1;206030;201;;0;0;0;15;Chronos;0;1;206231;300;1;773;207004;0;15;Chronos;0;0;206531;0;1;473;207004;;;;;;;;;;;;;;;;;;;
EXP2.2_290421;100020;1;Chronos;<ChronosDeviceInfo><FriendlyName>MyChronos</FriendlyName><DeviceIndex>1</DeviceIndex><SerialNumber>CHR-04301-1186</SerialNumber><EBNVersion>3.0.3.80</EBNVersion><FirmwareVersion>1.33</FirmwareVersion><APIVersion>1.33</APIVersion><USBHostControllerVersion>2.0</USBHostControllerVersion><USBConnectionRoute>USB#ROOT_HUB20#4&f63975&0#{f18a0e88-c30c-11d0-8815-00a0c906bed8} + USB#VID_8087&PID_0024#5&365d106a&0&1#{f18a0e88-c30c-11d0-8815-00a0c906bed8}(1) + VID_2266&PID_0007(2)</USBConnectionRoute></ChronosDeviceInfo>;"<?xml version=""1.0""?>\n<Clock xmlns:dt=""urn:schemas-microsoft-com:datatypes""><Description dt:dt=""string"">E-Prime Primary Realtime Clock</Description><StartTime><Timestamp dt:dt=""int"">0</Timestamp><DateUtc dt:dt=""string"">2013-09-12T06:53:53Z</DateUtc></StartTime><FrequencyChanges><FrequencyChange><Frequency dt:dt=""r8"">3312832</Frequency><Timestamp dt:dt=""r8"">12685803273</Timestamp><Current dt:dt=""r8"">0</Current><DateUtc dt:dt=""string"">2013-09-12T06:53:53Z</DateUtc></FrequencyChange></FrequencyChanges></Clock>\n";EXP2.2_290421-100020-1;59.951;1.0.0.347;1;Chronos;-198517043;Full;3.0.3.80;3.0.3.80;09/12/2013;12/09/2013 06:53;08:53:53;3.0.3.82;2;Chronos;;2;1;2;TESTVV;Generalbloc;;;;pretest;Chronos;20;1;VV_290421/875.png;1;1;20;-25;blocVVstim;listVVTrial;;;;Chronos;0;;1;1;208532;201;;0;0;1;1;Chronos;0;1;208733;0;1;285;209018;0;;;-999999;0;0;0;;0;0;;;;;;;;;;;;;;;;;;;
EXP2.2_290421;100020;1;Chronos;<ChronosDeviceInfo><FriendlyName>MyChronos</FriendlyName><DeviceIndex>1</DeviceIndex><SerialNumber>CHR-04301-1186</SerialNumber><EBNVersion>3.0.3.80</EBNVersion><FirmwareVersion>1.33</FirmwareVersion><APIVersion>1.33</APIVersion><USBHostControllerVersion>2.0</USBHostControllerVersion><USBConnectionRoute>USB#ROOT_HUB20#4&f63975&0#{f18a0e88-c30c-11d0-8815-00a0c906bed8} + USB#VID_8087&PID_0024#5&365d106a&0&1#{f18a0e88-c30c-11d0-8815-00a0c906bed8}(1) + VID_2266&PID_0007(2)</USBConnectionRoute></ChronosDeviceInfo>;"<?xml version=""1.0""?>\n<Clock xmlns:dt=""urn:schemas-microsoft-com:datatypes""><Description dt:dt=""string"">E-Prime Primary Realtime Clock</Description><StartTime><Timestamp dt:dt=""int"">0</Timestamp><DateUtc dt:dt=""string"">2013-09-12T06:53:53Z</DateUtc></StartTime><FrequencyChanges><FrequencyChange><Frequency dt:dt=""r8"">3312832</Frequency><Timestamp dt:dt=""r8"">12685803273</Timestamp><Current dt:dt=""r8"">0</Current><DateUtc dt:dt=""string"">2013-09-12T06:53:53Z</DateUtc></FrequencyChange></FrequencyChanges></Clock>\n";EXP2.2_290421-100020-1;59.951;1.0.0.347;1;Chronos;-198517043;Full;3.0.3.80;3.0.3.80;09/12/2013;12/09/2013 06:53;08:53:53;3.0.3.82;2;Chronos;;2;1;2;TESTVV;Generalbloc;;;;pretest;Chronos;21;1;VV_290421/895.png;5;1;21;-5;blocVVstim;listVVTrial;;;;Chronos;0;;0;1;210551;200;;0;0;1;1;Chronos;0;0;210751;300;1;465;211216;1;1;Chronos;0;0;211051;0;1;165;211216;;;;;;;;;;;;;;;;;;;
EXP2.2_290421;100020;1;Chronos;<ChronosDeviceInfo><FriendlyName>MyChronos</FriendlyName><DeviceIndex>1</DeviceIndex><SerialNumber>CHR-04301-1186</SerialNumber><EBNVersion>3.0.3.80</EBNVersion><FirmwareVersion>1.33</FirmwareVersion><APIVersion>1.33</APIVersion><USBHostControllerVersion>2.0</USBHostControllerVersion><USBConnectionRoute>USB#ROOT_HUB20#4&f63975&0#{f18a0e88-c30c-11d0-8815-00a0c906bed8} + USB#VID_8087&PID_0024#5&365d106a&0&1#{f18a0e88-c30c-11d0-8815-00a0c906bed8}(1) + VID_2266&PID_0007(2)</USBConnectionRoute></ChronosDeviceInfo>;"<?xml version=""1.0""?>\n<Clock xmlns:dt=""urn:schemas-microsoft-com:datatypes""><Description dt:dt=""string"">E-Prime Primary Realtime Clock</Description><StartTime><Timestamp dt:dt=""int"">0</Timestamp><DateUtc dt:dt=""string"">2013-09-12T06:53:53Z</DateUtc></StartTime><FrequencyChanges><FrequencyChange><Frequency dt:dt=""r8"">3312832</Frequency><Timestamp dt:dt=""r8"">12685803273</Timestamp><Current dt:dt=""r8"">0</Current><DateUtc dt:dt=""string"">2013-09-12T06:53:53Z</DateUtc></FrequencyChange></FrequencyChanges></Clock>\n";EXP2.2_290421-100020-1;59.951;1.0.0.347;1;Chronos;-198517043;Full;3.0.3.80;3.0.3.80;09/12/2013;12/09/2013 06:53;08:53:53;3.0.3.82;2;Chronos;;2;1;2;TESTVV;Generalbloc;;;;pretest;Chronos;22;5;VV_290421/925.png;11;1;22;25;blocVVstim;listVVTrial;;;;Chronos;0;;0;2;212753;200;;0;0;1;5;Chronos;0;0;212953;300;5;471;213424;1;5;Chronos;0;0;213253;0;5;171;213424;;;;;;;;;;;;;;;;;;;
EXP2.2_290421;100020;1;Chronos;<ChronosDeviceInfo><FriendlyName>MyChronos</FriendlyName><DeviceIndex>1</DeviceIndex><SerialNumber>CHR-04301-1186</SerialNumber><EBNVersion>3.0.3.80</EBNVersion><FirmwareVersion>1.33</FirmwareVersion><APIVersion>1.33</APIVersion><USBHostControllerVersion>2.0</USBHostControllerVersion><USBConnectionRoute>USB#ROOT_HUB20#4&f63975&0#{f18a0e88-c30c-11d0-8815-00a0c906bed8} + USB#VID_8087&PID_0024#5&365d106a&0&1#{f18a0e88-c30c-11d0-8815-00a0c906bed8}(1) + VID_2266&PID_0007(2)</USBConnectionRoute></ChronosDeviceInfo>;"<?xml version=""1.0""?>\n<Clock xmlns:dt=""urn:schemas-microsoft-com:datatypes""><Description dt:dt=""string"">E-Prime Primary Realtime Clock</Description><StartTime><Timestamp dt:dt=""int"">0</Timestamp><DateUtc dt:dt=""string"">2013-09-12T06:53:53Z</DateUtc></StartTime><FrequencyChanges><FrequencyChange><Frequency dt:dt=""r8"">3312832</Frequency><Timestamp dt:dt=""r8"">12685803273</Timestamp><Current dt:dt=""r8"">0</Current><DateUtc dt:dt=""string"">2013-09-12T06:53:53Z</DateUtc></FrequencyChange></FrequencyChanges></Clock>\n";EXP2.2_290421-100020-1;59.951;1.0.0.347;1;Chronos;-198517043;Full;3.0.3.80;3.0.3.80;09/12/2013;12/09/2013 06:53;08:53:53;3.0.3.82;2;Chronos;;2;1;2;TESTVV;Generalbloc;;;;pretest;Chronos;23;1;VV_290421/875.png;1;1;23;-25;blocVVstim;listVVTrial;;;;Chronos;0;;0;1;214954;201;;0;0;1;1;Chronos;0;1;215155;0;1;295;215450;0;;;-999999;0;215455;0;;0;0;;;;;;;;;;;;;;;;;;;
EXP2.2_290421;100020;1;Chronos;<ChronosDeviceInfo><FriendlyName>MyChronos</FriendlyName><DeviceIndex>1</DeviceIndex><SerialNumber>CHR-04301-1186</SerialNumber><EBNVersion>3.0.3.80</EBNVersion><FirmwareVersion>1.33</FirmwareVersion><APIVersion>1.33</APIVersion><USBHostControllerVersion>2.0</USBHostControllerVersion><USBConnectionRoute>USB#ROOT_HUB20#4&f63975&0#{f18a0e88-c30c-11d0-8815-00a0c906bed8} + USB#VID_8087&PID_0024#5&365d106a&0&1#{f18a0e88-c30c-11d0-8815-00a0c906bed8}(1) + VID_2266&PID_0007(2)</USBConnectionRoute></ChronosDeviceInfo>;"<?xml version=""1.0""?>\n<Clock xmlns:dt=""urn:schemas-microsoft-com:datatypes""><Description dt:dt=""string"">E-Prime Primary Realtime Clock</Description><StartTime><Timestamp dt:dt=""int"">0</Timestamp><DateUtc dt:dt=""string"">2013-09-12T06:53:53Z</DateUtc></StartTime><FrequencyChanges><FrequencyChange><Frequency dt:dt=""r8"">3312832</Frequency><Timestamp dt:dt=""r8"">12685803273</Timestamp><Current dt:dt=""r8"">0</Current><DateUtc dt:dt=""string"">2013-09-12T06:53:53Z</DateUtc></FrequencyChange></FrequencyChanges></Clock>\n";EXP2.2_290421-100020-1;59.951;1.0.0.347;1;Chronos;-198517043;Full;3.0.3.80;3.0.3.80;09/12/2013;12/09/2013 06:53;08:53:53;3.0.3.82;2;Chronos;;2;1;2;TESTVV;Generalbloc;;;;pretest;Chronos;24;5;VV_290421/920.png;10;1;24;20;blocVVstim;listVVTrial;;;;Chronos;0;;1;1;216989;201;;0;0;1;5;Chronos;0;1;217190;300;5;320;217510;1;5;Chronos;0;0;217490;0;5;20;217510;;;;;;;;;;;;;;;;;;;
EXP2.2_290421;100020;1;Chronos;<ChronosDeviceInfo><FriendlyName>MyChronos</FriendlyName><DeviceIndex>1</DeviceIndex><SerialNumber>CHR-04301-1186</SerialNumber><EBNVersion>3.0.3.80</EBNVersion><FirmwareVersion>1.33</FirmwareVersion><APIVersion>1.33</APIVersion><USBHostControllerVersion>2.0</USBHostControllerVersion><USBConnectionRoute>USB#ROOT_HUB20#4&f63975&0#{f18a0e88-c30c-11d0-8815-00a0c906bed8} + USB#VID_8087&PID_0024#5&365d106a&0&1#{f18a0e88-c30c-11d0-8815-00a0c906bed8}(1) + VID_2266&PID_0007(2)</USBConnectionRoute></ChronosDeviceInfo>;"<?xml version=""1.0""?>\n<Clock xmlns:dt=""urn:schemas-microsoft-com:datatypes""><Description dt:dt=""string"">E-Prime Primary Realtime Clock</Description><StartTime><Timestamp dt:dt=""int"">0</Timestamp><DateUtc dt:dt=""string"">2013-09-12T06:53:53Z</DateUtc></StartTime><FrequencyChanges><FrequencyChange><Frequency dt:dt=""r8"">3312832</Frequency><Timestamp dt:dt=""r8"">12685803273</Timestamp><Current dt:dt=""r8"">0</Current><DateUtc dt:dt=""string"">2013-09-12T06:53:53Z</DateUtc></FrequencyChange></FrequencyChanges></Clock>\n";EXP2.2_290421-100020-1;59.951;1.0.0.347;1;Chronos;-198517043;Full;3.0.3.80;3.0.3.80;09/12/2013;12/09/2013 06:53;08:53:53;3.0.3.82;2;Chronos;;2;1;2;TESTVV;Generalbloc;;;;pretest;Chronos;25;5;VV_290421/915.png;9;1;25;15;blocVVstim;listVVTrial;;;;Chronos;0;;0;1;219041;200;;0;0;1;5;Chronos;0;0;219241;301;5;370;219611;1;5;Chronos;0;1;219542;0;5;69;219611;;;;;;;;;;;;;;;;;;;
EXP2.2_290421;100020;1;Chronos;<ChronosDeviceInfo><FriendlyName>MyChronos</FriendlyName><DeviceIndex>1</DeviceIndex><SerialNumber>CHR-04301-1186</SerialNumber><EBNVersion>3.0.3.80</EBNVersion><FirmwareVersion>1.33</FirmwareVersion><APIVersion>1.33</APIVersion><USBHostControllerVersion>2.0</USBHostControllerVersion><USBConnectionRoute>USB#ROOT_HUB20#4&f63975&0#{f18a0e88-c30c-11d0-8815-00a0c906bed8} + USB#VID_8087&PID_0024#5&365d106a&0&1#{f18a0e88-c30c-11d0-8815-00a0c906bed8}(1) + VID_2266&PID_0007(2)</USBConnectionRoute></ChronosDeviceInfo>;"<?xml version=""1.0""?>\n<Clock xmlns:dt=""urn:schemas-microsoft-com:datatypes""><Description dt:dt=""string"">E-Prime Primary Realtime Clock</Description><StartTime><Timestamp dt:dt=""int"">0</Timestamp><DateUtc dt:dt=""string"">2013-09-12T06:53:53Z</DateUtc></StartTime><FrequencyChanges><FrequencyChange><Frequency dt:dt=""r8"">3312832</Frequency><Timestamp dt:dt=""r8"">12685803273</Timestamp><Current dt:dt=""r8"">0</Current><DateUtc dt:dt=""string"">2013-09-12T06:53:53Z</DateUtc></FrequencyChange></FrequencyChanges></Clock>\n";EXP2.2_290421-100020-1;59.951;1.0.0.347;1;Chronos;-198517043;Full;3.0.3.80;3.0.3.80;09/12/2013;12/09/2013 06:53;08:53:53;3.0.3.82;2;Chronos;;2;1;2;TESTVV;Generalbloc;;;;pretest;Chronos;26;5;VV_290421/905.png;7;1;26;5;blocVVstim;listVVTrial;;;;Chronos;0;;0;1;221143;200;;0;0;0;5;Chronos;0;0;221343;300;1;756;222099;0;5;Chronos;0;0;221643;0;1;456;222099;;;;;;;;;;;;;;;;;;;
EXP2.2_290421;100020;1;Chronos;<ChronosDeviceInfo><FriendlyName>MyChronos</FriendlyName><DeviceIndex>1</DeviceIndex><SerialNumber>CHR-04301-1186</SerialNumber><EBNVersion>3.0.3.80</EBNVersion><FirmwareVersion>1.33</FirmwareVersion><APIVersion>1.33</APIVersion><USBHostControllerVersion>2.0</USBHostControllerVersion><USBConnectionRoute>USB#ROOT_HUB20#4&f63975&0#{f18a0e88-c30c-11d0-8815-00a0c906bed8} + USB#VID_8087&PID_0024#5&365d106a&0&1#{f18a0e88-c30c-11d0-8815-00a0c906bed8}(1) + VID_2266&PID_0007(2)</USBConnectionRoute></ChronosDeviceInfo>;"<?xml version=""1.0""?>\n<Clock xmlns:dt=""urn:schemas-microsoft-com:datatypes""><Description dt:dt=""string"">E-Prime Primary Realtime Clock</Description><StartTime><Timestamp dt:dt=""int"">0</Timestamp><DateUtc dt:dt=""string"">2013-09-12T06:53:53Z</DateUtc></StartTime><FrequencyChanges><FrequencyChange><Frequency dt:dt=""r8"">3312832</Frequency><Timestamp dt:dt=""r8"">12685803273</Timestamp><Current dt:dt=""r8"">0</Current><DateUtc dt:dt=""string"">2013-09-12T06:53:53Z</DateUtc></FrequencyChange></FrequencyChanges></Clock>\n";EXP2.2_290421-100020-1;59.951;1.0.0.347;1;Chronos;-198517043;Full;3.0.3.80;3.0.3.80;09/12/2013;12/09/2013 06:53;08:53:53;3.0.3.82;2;Chronos;;2;1;2;TESTVV;Generalbloc;;;;pretest;Chronos;27;5;VV_290421/910.png;8;1;27;10;blocVVstim;listVVTrial;;;;Chronos;0;;0;1;223628;200;;0;0;0;5;Chronos;1;0;223828;301;1;973;224801;0;5;Chronos;0;1;224129;0;1;672;224801;;;;;;;;;;;;;;;;;;;
EXP2.2_290421;100020;1;Chronos;<ChronosDeviceInfo><FriendlyName>MyChronos</FriendlyName><DeviceIndex>1</DeviceIndex><SerialNumber>CHR-04301-1186</SerialNumber><EBNVersion>3.0.3.80</EBNVersion><FirmwareVersion>1.33</FirmwareVersion><APIVersion>1.33</APIVersion><USBHostControllerVersion>2.0</USBHostControllerVersion><USBConnectionRoute>USB#ROOT_HUB20#4&f63975&0#{f18a0e88-c30c-11d0-8815-00a0c906bed8} + USB#VID_8087&PID_0024#5&365d106a&0&1#{f18a0e88-c30c-11d0-8815-00a0c906bed8}(1) + VID_2266&PID_0007(2)</USBConnectionRoute></ChronosDeviceInfo>;"<?xml version=""1.0""?>\n<Clock xmlns:dt=""urn:schemas-microsoft-com:datatypes""><Description dt:dt=""string"">E-Prime Primary Realtime Clock</Description><StartTime><Timestamp dt:dt=""int"">0</Timestamp><DateUtc dt:dt=""string"">2013-09-12T06:53:53Z</DateUtc></StartTime><FrequencyChanges><FrequencyChange><Frequency dt:dt=""r8"">3312832</Frequency><Timestamp dt:dt=""r8"">12685803273</Timestamp><Current dt:dt=""r8"">0</Current><DateUtc dt:dt=""string"">2013-09-12T06:53:53Z</DateUtc></FrequencyChange></FrequencyChanges></Clock>\n";EXP2.2_290421-100020-1;59.951;1.0.0.347;1;Chronos;-198517043;Full;3.0.3.80;3.0.3.80;09/12/2013;12/09/2013 06:53;08:53:53;3.0.3.82;2;Chronos;;2;1;2;TESTVV;Generalbloc;;;;pretest;Chronos;28;5;VV_290421/915.png;9;1;28;15;blocVVstim;listVVTrial;;;;Chronos;0;;0;2;226331;200;;0;0;1;5;Chronos;0;0;226531;300;5;1163;227694;1;5;Chronos;0;0;226831;0;5;863;227694;;;;;;;;;;;;;;;;;;;
EXP2.2_290421;100020;1;Chronos;<ChronosDeviceInfo><FriendlyName>MyChronos</FriendlyName><DeviceIndex>1</DeviceIndex><SerialNumber>CHR-04301-1186</SerialNumber><EBNVersion>3.0.3.80</EBNVersion><FirmwareVersion>1.33</FirmwareVersion><APIVersion>1.33</APIVersion><USBHostControllerVersion>2.0</USBHostControllerVersion><USBConnectionRoute>USB#ROOT_HUB20#4&f63975&0#{f18a0e88-c30c-11d0-8815-00a0c906bed8} + USB#VID_8087&PID_0024#5&365d106a&0&1#{f18a0e88-c30c-11d0-8815-00a0c906bed8}(1) + VID_2266&PID_0007(2)</USBConnectionRoute></ChronosDeviceInfo>;"<?xml version=""1.0""?>\n<Clock xmlns:dt=""urn:schemas-microsoft-com:datatypes""><Description dt:dt=""string"">E-Prime Primary Realtime Clock</Description><StartTime><Timestamp dt:dt=""int"">0</Timestamp><DateUtc dt:dt=""string"">2013-09-12T06:53:53Z</DateUtc></StartTime><FrequencyChanges><FrequencyChange><Frequency dt:dt=""r8"">3312832</Frequency><Timestamp dt:dt=""r8"">12685803273</Timestamp><Current dt:dt=""r8"">0</Current><DateUtc dt:dt=""string"">2013-09-12T06:53:53Z</DateUtc></FrequencyChange></FrequencyChanges></Clock>\n";EXP2.2_290421-100020-1;59.951;1.0.0.347;1;Chronos;-198517043;Full;3.0.3.80;3.0.3.80;09/12/2013;12/09/2013 06:53;08:53:53;3.0.3.82;2;Chronos;;2;1;2;TESTVV;Generalbloc;;;;pretest;Chronos;29;1;VV_290421/880.png;2;1;29;-20;blocVVstim;listVVTrial;;;;Chronos;0;;0;1;229233;200;;0;0;1;1;Chronos;0;0;229433;0;1;266;229699;0;;;-999999;0;0;0;;0;0;;;;;;;;;;;;;;;;;;;
EXP2.2_290421;100020;1;Chronos;<ChronosDeviceInfo><FriendlyName>MyChronos</FriendlyName><DeviceIndex>1</DeviceIndex><SerialNumber>CHR-04301-1186</SerialNumber><EBNVersion>3.0.3.80</EBNVersion><FirmwareVersion>1.33</FirmwareVersion><APIVersion>1.33</APIVersion><USBHostControllerVersion>2.0</USBHostControllerVersion><USBConnectionRoute>USB#ROOT_HUB20#4&f63975&0#{f18a0e88-c30c-11d0-8815-00a0c906bed8} + USB#VID_8087&PID_0024#5&365d106a&0&1#{f18a0e88-c30c-11d0-8815-00a0c906bed8}(1) + VID_2266&PID_0007(2)</USBConnectionRoute></ChronosDeviceInfo>;"<?xml version=""1.0""?>\n<Clock xmlns:dt=""urn:schemas-microsoft-com:datatypes""><Description dt:dt=""string"">E-Prime Primary Realtime Clock</Description><StartTime><Timestamp dt:dt=""int"">0</Timestamp><DateUtc dt:dt=""string"">2013-09-12T06:53:53Z</DateUtc></StartTime><FrequencyChanges><FrequencyChange><Frequency dt:dt=""r8"">3312832</Frequency><Timestamp dt:dt=""r8"">12685803273</Timestamp><Current dt:dt=""r8"">0</Current><DateUtc dt:dt=""string"">2013-09-12T06:53:53Z</DateUtc></FrequencyChange></FrequencyChanges></Clock>\n";EXP2.2_290421-100020-1;59.951;1.0.0.347;1;Chronos;-198517043;Full;3.0.3.80;3.0.3.80;09/12/2013;12/09/2013 06:53;08:53:53;3.0.3.82;2;Chronos;;2;1;2;TESTVV;Generalbloc;;;;pretest;Chronos;30;5;VV_290421/905.png;7;1;30;5;blocVVstim;listVVTrial;;;;Chronos;0;;0;2;231235;200;;0;0;0;5;Chronos;0;0;231435;300;1;1306;232741;0;5;Chronos;0;0;231735;0;1;1006;232741;;;;;;;;;;;;;;;;;;;
EXP2.2_290421;100020;1;Chronos;<ChronosDeviceInfo><FriendlyName>MyChronos</FriendlyName><DeviceIndex>1</DeviceIndex><SerialNumber>CHR-04301-1186</SerialNumber><EBNVersion>3.0.3.80</EBNVersion><FirmwareVersion>1.33</FirmwareVersion><APIVersion>1.33</APIVersion><USBHostControllerVersion>2.0</USBHostControllerVersion><USBConnectionRoute>USB#ROOT_HUB20#4&f63975&0#{f18a0e88-c30c-11d0-8815-00a0c906bed8} + USB#VID_8087&PID_0024#5&365d106a&0&1#{f18a0e88-c30c-11d0-8815-00a0c906bed8}(1) + VID_2266&PID_0007(2)</USBConnectionRoute></ChronosDeviceInfo>;"<?xml version=""1.0""?>\n<Clock xmlns:dt=""urn:schemas-microsoft-com:datatypes""><Description dt:dt=""string"">E-Prime Primary Realtime Clock</Description><StartTime><Timestamp dt:dt=""int"">0</Timestamp><DateUtc dt:dt=""string"">2013-09-12T06:53:53Z</DateUtc></StartTime><FrequencyChanges><FrequencyChange><Frequency dt:dt=""r8"">3312832</Frequency><Timestamp dt:dt=""r8"">12685803273</Timestamp><Current dt:dt=""r8"">0</Current><DateUtc dt:dt=""string"">2013-09-12T06:53:53Z</DateUtc></FrequencyChange></FrequencyChanges></Clock>\n";EXP2.2_290421-100020-1;59.951;1.0.0.347;1;Chronos;-198517043;Full;3.0.3.80;3.0.3.80;09/12/2013;12/09/2013 06:53;08:53:53;3.0.3.82;2;Chronos;;2;1;2;TESTVV;Generalbloc;;;;pretest;Chronos;31;1;VV_290421/880.png;2;1;31;-20;blocVVstim;listVVTrial;;;;Chronos;0;;0;1;234270;201;;0;0;1;1;Chronos;0;1;234471;300;1;929;235400;1;1;Chronos;0;0;234771;0;1;629;235400;;;;;;;;;;;;;;;;;;;
EXP2.2_290421;100020;1;Chronos;<ChronosDeviceInfo><FriendlyName>MyChronos</FriendlyName><DeviceIndex>1</DeviceIndex><SerialNumber>CHR-04301-1186</SerialNumber><EBNVersion>3.0.3.80</EBNVersion><FirmwareVersion>1.33</FirmwareVersion><APIVersion>1.33</APIVersion><USBHostControllerVersion>2.0</USBHostControllerVersion><USBConnectionRoute>USB#ROOT_HUB20#4&f63975&0#{f18a0e88-c30c-11d0-8815-00a0c906bed8} + USB#VID_8087&PID_0024#5&365d106a&0&1#{f18a0e88-c30c-11d0-8815-00a0c906bed8}(1) + VID_2266&PID_0007(2)</USBConnectionRoute></ChronosDeviceInfo>;"<?xml version=""1.0""?>\n<Clock xmlns:dt=""urn:schemas-microsoft-com:datatypes""><Description dt:dt=""string"">E-Prime Primary Realtime Clock</Description><StartTime><Timestamp dt:dt=""int"">0</Timestamp><DateUtc dt:dt=""string"">2013-09-12T06:53:53Z</DateUtc></StartTime><FrequencyChanges><FrequencyChange><Frequency dt:dt=""r8"">3312832</Frequency><Timestamp dt:dt=""r8"">12685803273</Timestamp><Current dt:dt=""r8"">0</Current><DateUtc dt:dt=""string"">2013-09-12T06:53:53Z</DateUtc></FrequencyChange></FrequencyChanges></Clock>\n";EXP2.2_290421-100020-1;59.951;1.0.0.347;1;Chronos;-198517043;Full;3.0.3.80;3.0.3.80;09/12/2013;12/09/2013 06:53;08:53:53;3.0.3.82;2;Chronos;;2;1;2;TESTVV;Generalbloc;;;;pretest;Chronos;32;5;VV_290421/910.png;8;1;32;10;blocVVstim;listVVTrial;;;;Chronos;0;;0;2;236923;200;;0;0;0;5;Chronos;0;0;237123;300;1;905;238028;0;5;Chronos;0;0;237423;0;1;605;238028;;;;;;;;;;;;;;;;;;;
EXP2.2_290421;100020;1;Chronos;<ChronosDeviceInfo><FriendlyName>MyChronos</FriendlyName><DeviceIndex>1</DeviceIndex><SerialNumber>CHR-04301-1186</SerialNumber><EBNVersion>3.0.3.80</EBNVersion><FirmwareVersion>1.33</FirmwareVersion><APIVersion>1.33</APIVersion><USBHostControllerVersion>2.0</USBHostControllerVersion><USBConnectionRoute>USB#ROOT_HUB20#4&f63975&0#{f18a0e88-c30c-11d0-8815-00a0c906bed8} + USB#VID_8087&PID_0024#5&365d106a&0&1#{f18a0e88-c30c-11d0-8815-00a0c906bed8}(1) + VID_2266&PID_0007(2)</USBConnectionRoute></ChronosDeviceInfo>;"<?xml version=""1.0""?>\n<Clock xmlns:dt=""urn:schemas-microsoft-com:datatypes""><Description dt:dt=""string"">E-Prime Primary Realtime Clock</Description><StartTime><Timestamp dt:dt=""int"">0</Timestamp><DateUtc dt:dt=""string"">2013-09-12T06:53:53Z</DateUtc></StartTime><FrequencyChanges><FrequencyChange><Frequency dt:dt=""r8"">3312832</Frequency><Timestamp dt:dt=""r8"">12685803273</Timestamp><Current dt:dt=""r8"">0</Current><DateUtc dt:dt=""string"">2013-09-12T06:53:53Z</DateUtc></FrequencyChange></FrequencyChanges></Clock>\n";EXP2.2_290421-100020-1;59.951;1.0.0.347;1;Chronos;-198517043;Full;3.0.3.80;3.0.3.80;09/12/2013;12/09/2013 06:53;08:53:53;3.0.3.82;2;Chronos;;2;1;2;TESTVV;Generalbloc;;;;pretest;Chronos;33;5;VV_290421/910.png;8;1;33;10;blocVVstim;listVVTrial;;;;Chronos;0;;0;1;239558;200;;0;0;0;5;Chronos;0;0;239758;301;1;1056;240814;0;5;Chronos;0;1;240059;0;1;755;240814;;;;;;;;;;;;;;;;;;;
EXP2.2_290421;100020;1;Chronos;<ChronosDeviceInfo><FriendlyName>MyChronos</FriendlyName><DeviceIndex>1</DeviceIndex><SerialNumber>CHR-04301-1186</SerialNumber><EBNVersion>3.0.3.80</EBNVersion><FirmwareVersion>1.33</FirmwareVersion><APIVersion>1.33</APIVersion><USBHostControllerVersion>2.0</USBHostControllerVersion><USBConnectionRoute>USB#ROOT_HUB20#4&f63975&0#{f18a0e88-c30c-11d0-8815-00a0c906bed8} + USB#VID_8087&PID_0024#5&365d106a&0&1#{f18a0e88-c30c-11d0-8815-00a0c906bed8}(1) + VID_2266&PID_0007(2)</USBConnectionRoute></ChronosDeviceInfo>;"<?xml version=""1.0""?>\n<Clock xmlns:dt=""urn:schemas-microsoft-com:datatypes""><Description dt:dt=""string"">E-Prime Primary Realtime Clock</Description><StartTime><Timestamp dt:dt=""int"">0</Timestamp><DateUtc dt:dt=""string"">2013-09-12T06:53:53Z</DateUtc></StartTime><FrequencyChanges><FrequencyChange><Frequency dt:dt=""r8"">3312832</Frequency><Timestamp dt:dt=""r8"">12685803273</Timestamp><Current dt:dt=""r8"">0</Current><DateUtc dt:dt=""string"">2013-09-12T06:53:53Z</DateUtc></FrequencyChange></FrequencyChanges></Clock>\n";EXP2.2_290421-100020-1;59.951;1.0.0.347;1;Chronos;-198517043;Full;3.0.3.80;3.0.3.80;09/12/2013;12/09/2013 06:53;08:53:53;3.0.3.82;2;Chronos;;2;1;2;TESTVV;Generalbloc;;;;pretest;Chronos;34;1;VV_290421/885.png;3;1;34;-15;blocVVstim;listVVTrial;;;;Chronos;0;;0;1;242344;200;;0;0;1;1;Chronos;0;0;242544;300;1;429;242973;1;1;Chronos;0;0;242844;0;1;129;242973;;;;;;;;;;;;;;;;;;;
EXP2.2_290421;100020;1;Chronos;<ChronosDeviceInfo><FriendlyName>MyChronos</FriendlyName><DeviceIndex>1</DeviceIndex><SerialNumber>CHR-04301-1186</SerialNumber><EBNVersion>3.0.3.80</EBNVersion><FirmwareVersion>1.33</FirmwareVersion><APIVersion>1.33</APIVersion><USBHostControllerVersion>2.0</USBHostControllerVersion><USBConnectionRoute>USB#ROOT_HUB20#4&f63975&0#{f18a0e88-c30c-11d0-8815-00a0c906bed8} + USB#VID_8087&PID_0024#5&365d106a&0&1#{f18a0e88-c30c-11d0-8815-00a0c906bed8}(1) + VID_2266&PID_0007(2)</USBConnectionRoute></ChronosDeviceInfo>;"<?xml version=""1.0""?>\n<Clock xmlns:dt=""urn:schemas-microsoft-com:datatypes""><Description dt:dt=""string"">E-Prime Primary Realtime Clock</Description><StartTime><Timestamp dt:dt=""int"">0</Timestamp><DateUtc dt:dt=""string"">2013-09-12T06:53:53Z</DateUtc></StartTime><FrequencyChanges><FrequencyChange><Frequency dt:dt=""r8"">3312832</Frequency><Timestamp dt:dt=""r8"">12685803273</Timestamp><Current dt:dt=""r8"">0</Current><DateUtc dt:dt=""string"">2013-09-12T06:53:53Z</DateUtc></FrequencyChange></FrequencyChanges></Clock>\n";EXP2.2_290421-100020-1;59.951;1.0.0.347;1;Chronos;-198517043;Full;3.0.3.80;3.0.3.80;09/12/2013;12/09/2013 06:53;08:53:53;3.0.3.82;2;Chronos;;2;1;2;TESTVV;Generalbloc;;;;pretest;Chronos;35;15;VV_290421/900.png;6;1;35;0;blocVVstim;listVVTrial;;;;Chronos;0;;0;1;244512;200;;0;0;0;15;Chronos;0;0;244712;301;1;529;245241;0;15;Chronos;0;1;245013;0;1;228;245241;;;;;;;;;;;;;;;;;;;
EXP2.2_290421;100020;1;Chronos;<ChronosDeviceInfo><FriendlyName>MyChronos</FriendlyName><DeviceIndex>1</DeviceIndex><SerialNumber>CHR-04301-1186</SerialNumber><EBNVersion>3.0.3.80</EBNVersion><FirmwareVersion>1.33</FirmwareVersion><APIVersion>1.33</APIVersion><USBHostControllerVersion>2.0</USBHostControllerVersion><USBConnectionRoute>USB#ROOT_HUB20#4&f63975&0#{f18a0e88-c30c-11d0-8815-00a0c906bed8} + USB#VID_8087&PID_0024#5&365d106a&0&1#{f18a0e88-c30c-11d0-8815-00a0c906bed8}(1) + VID_2266&PID_0007(2)</USBConnectionRoute></ChronosDeviceInfo>;"<?xml version=""1.0""?>\n<Clock xmlns:dt=""urn:schemas-microsoft-com:datatypes""><Description dt:dt=""string"">E-Prime Primary Realtime Clock</Description><StartTime><Timestamp dt:dt=""int"">0</Timestamp><DateUtc dt:dt=""string"">2013-09-12T06:53:53Z</DateUtc></StartTime><FrequencyChanges><FrequencyChange><Frequency dt:dt=""r8"">3312832</Frequency><Timestamp dt:dt=""r8"">12685803273</Timestamp><Current dt:dt=""r8"">0</Current><DateUtc dt:dt=""string"">2013-09-12T06:53:53Z</DateUtc></FrequencyChange></FrequencyChanges></Clock>\n";EXP2.2_290421-100020-1;59.951;1.0.0.347;1;Chronos;-198517043;Full;3.0.3.80;3.0.3.80;09/12/2013;12/09/2013 06:53;08:53:53;3.0.3.82;2;Chronos;;2;1;2;TESTVV;Generalbloc;;;;pretest;Chronos;36;1;VV_290421/875.png;1;1;36;-25;blocVVstim;listVVTrial;;;;Chronos;0;;0;1;246781;200;;0;0;1;1;Chronos;0;0;246981;0;1;263;247244;0;;;-999999;0;0;0;;0;0;;;;;;;;;;;;;;;;;;;
EXP2.2_290421;100020;1;Chronos;<ChronosDeviceInfo><FriendlyName>MyChronos</FriendlyName><DeviceIndex>1</DeviceIndex><SerialNumber>CHR-04301-1186</SerialNumber><EBNVersion>3.0.3.80</EBNVersion><FirmwareVersion>1.33</FirmwareVersion><APIVersion>1.33</APIVersion><USBHostControllerVersion>2.0</USBHostControllerVersion><USBConnectionRoute>USB#ROOT_HUB20#4&f63975&0#{f18a0e88-c30c-11d0-8815-00a0c906bed8} + USB#VID_8087&PID_0024#5&365d106a&0&1#{f18a0e88-c30c-11d0-8815-00a0c906bed8}(1) + VID_2266&PID_0007(2)</USBConnectionRoute></ChronosDeviceInfo>;"<?xml version=""1.0""?>\n<Clock xmlns:dt=""urn:schemas-microsoft-com:datatypes""><Description dt:dt=""string"">E-Prime Primary Realtime Clock</Description><StartTime><Timestamp dt:dt=""int"">0</Timestamp><DateUtc dt:dt=""string"">2013-09-12T06:53:53Z</DateUtc></StartTime><FrequencyChanges><FrequencyChange><Frequency dt:dt=""r8"">3312832</Frequency><Timestamp dt:dt=""r8"">12685803273</Timestamp><Current dt:dt=""r8"">0</Current><DateUtc dt:dt=""string"">2013-09-12T06:53:53Z</DateUtc></FrequencyChange></FrequencyChanges></Clock>\n";EXP2.2_290421-100020-1;59.951;1.0.0.347;1;Chronos;-198517043;Full;3.0.3.80;3.0.3.80;09/12/2013;12/09/2013 06:53;08:53:53;3.0.3.82;2;Chronos;;2;1;2;TESTVV;Generalbloc;;;;pretest;Chronos;37;1;VV_290421/875.png;1;1;37;-25;blocVVstim;listVVTrial;;;;Chronos;0;;0;1;248766;200;;0;0;1;1;Chronos;0;0;248966;0;1;173;249139;0;;;-999999;0;0;0;;0;0;;;;;;;;;;;;;;;;;;;
EXP2.2_290421;100020;1;Chronos;<ChronosDeviceInfo><FriendlyName>MyChronos</FriendlyName><DeviceIndex>1</DeviceIndex><SerialNumber>CHR-04301-1186</SerialNumber><EBNVersion>3.0.3.80</EBNVersion><FirmwareVersion>1.33</FirmwareVersion><APIVersion>1.33</APIVersion><USBHostControllerVersion>2.0</USBHostControllerVersion><USBConnectionRoute>USB#ROOT_HUB20#4&f63975&0#{f18a0e88-c30c-11d0-8815-00a0c906bed8} + USB#VID_8087&PID_0024#5&365d106a&0&1#{f18a0e88-c30c-11d0-8815-00a0c906bed8}(1) + VID_2266&PID_0007(2)</USBConnectionRoute></ChronosDeviceInfo>;"<?xml version=""1.0""?>\n<Clock xmlns:dt=""urn:schemas-microsoft-com:datatypes""><Description dt:dt=""string"">E-Prime Primary Realtime Clock</Description><StartTime><Timestamp dt:dt=""int"">0</Timestamp><DateUtc dt:dt=""string"">2013-09-12T06:53:53Z</DateUtc></StartTime><FrequencyChanges><FrequencyChange><Frequency dt:dt=""r8"">3312832</Frequency><Timestamp dt:dt=""r8"">12685803273</Timestamp><Current dt:dt=""r8"">0</Current><DateUtc dt:dt=""string"">2013-09-12T06:53:53Z</DateUtc></FrequencyChange></FrequencyChanges></Clock>\n";EXP2.2_290421-100020-1;59.951;1.0.0.347;1;Chronos;-198517043;Full;3.0.3.80;3.0.3.80;09/12/2013;12/09/2013 06:53;08:53:53;3.0.3.82;2;Chronos;;2;1;2;TESTVV;Generalbloc;;;;pretest;Chronos;38;5;VV_290421/905.png;7;1;38;5;blocVVstim;listVVTrial;;;;Chronos;0;;0;1;250667;200;;0;0;0;5;Chronos;1;0;250867;301;1;1050;251917;0;5;Chronos;0;1;251168;0;1;749;251917;;;;;;;;;;;;;;;;;;;
EXP2.2_290421;100020;1;Chronos;<ChronosDeviceInfo><FriendlyName>MyChronos</FriendlyName><DeviceIndex>1</DeviceIndex><SerialNumber>CHR-04301-1186</SerialNumber><EBNVersion>3.0.3.80</EBNVersion><FirmwareVersion>1.33</FirmwareVersion><APIVersion>1.33</APIVersion><USBHostControllerVersion>2.0</USBHostControllerVersion><USBConnectionRoute>USB#ROOT_HUB20#4&f63975&0#{f18a0e88-c30c-11d0-8815-00a0c906bed8} + USB#VID_8087&PID_0024#5&365d106a&0&1#{f18a0e88-c30c-11d0-8815-00a0c906bed8}(1) + VID_2266&PID_0007(2)</USBConnectionRoute></ChronosDeviceInfo>;"<?xml version=""1.0""?>\n<Clock xmlns:dt=""urn:schemas-microsoft-com:datatypes""><Description dt:dt=""string"">E-Prime Primary Realtime Clock</Description><StartTime><Timestamp dt:dt=""int"">0</Timestamp><DateUtc dt:dt=""string"">2013-09-12T06:53:53Z</DateUtc></StartTime><FrequencyChanges><FrequencyChange><Frequency dt:dt=""r8"">3312832</Frequency><Timestamp dt:dt=""r8"">12685803273</Timestamp><Current dt:dt=""r8"">0</Current><DateUtc dt:dt=""string"">2013-09-12T06:53:53Z</DateUtc></FrequencyChange></FrequencyChanges></Clock>\n";EXP2.2_290421-100020-1;59.951;1.0.0.347;1;Chronos;-198517043;Full;3.0.3.80;3.0.3.80;09/12/2013;12/09/2013 06:53;08:53:53;3.0.3.82;2;Chronos;;2;1;2;TESTVV;Generalbloc;;;;pretest;Chronos;39;1;VV_290421/875.png;1;1;39;-25;blocVVstim;listVVTrial;;;;Chronos;0;;0;1;253453;200;;0;0;1;1;Chronos;0;0;253653;300;1;548;254201;1;1;Chronos;0;0;253953;0;1;248;254201;;;;;;;;;;;;;;;;;;;
EXP2.2_290421;100020;1;Chronos;<ChronosDeviceInfo><FriendlyName>MyChronos</FriendlyName><DeviceIndex>1</DeviceIndex><SerialNumber>CHR-04301-1186</SerialNumber><EBNVersion>3.0.3.80</EBNVersion><FirmwareVersion>1.33</FirmwareVersion><APIVersion>1.33</APIVersion><USBHostControllerVersion>2.0</USBHostControllerVersion><USBConnectionRoute>USB#ROOT_HUB20#4&f63975&0#{f18a0e88-c30c-11d0-8815-00a0c906bed8} + USB#VID_8087&PID_0024#5&365d106a&0&1#{f18a0e88-c30c-11d0-8815-00a0c906bed8}(1) + VID_2266&PID_0007(2)</USBConnectionRoute></ChronosDeviceInfo>;"<?xml version=""1.0""?>\n<Clock xmlns:dt=""urn:schemas-microsoft-com:datatypes""><Description dt:dt=""string"">E-Prime Primary Realtime Clock</Description><StartTime><Timestamp dt:dt=""int"">0</Timestamp><DateUtc dt:dt=""string"">2013-09-12T06:53:53Z</DateUtc></StartTime><FrequencyChanges><FrequencyChange><Frequency dt:dt=""r8"">3312832</Frequency><Timestamp dt:dt=""r8"">12685803273</Timestamp><Current dt:dt=""r8"">0</Current><DateUtc dt:dt=""string"">2013-09-12T06:53:53Z</DateUtc></FrequencyChange></FrequencyChanges></Clock>\n";EXP2.2_290421-100020-1;59.951;1.0.0.347;1;Chronos;-198517043;Full;3.0.3.80;3.0.3.80;09/12/2013;12/09/2013 06:53;08:53:53;3.0.3.82;2;Chronos;;2;1;2;TESTVV;Generalbloc;;;;pretest;Chronos;40;1;VV_290421/880.png;2;1;40;-20;blocVVstim;listVVTrial;;;;Chronos;0;;0;1;255738;200;;0;0;1;1;Chronos;0;0;255938;301;1;474;256412;1;1;Chronos;0;1;256239;0;1;173;256412;;;;;;;;;;;;;;;;;;;
EXP2.2_290421;100020;1;Chronos;<ChronosDeviceInfo><FriendlyName>MyChronos</FriendlyName><DeviceIndex>1</DeviceIndex><SerialNumber>CHR-04301-1186</SerialNumber><EBNVersion>3.0.3.80</EBNVersion><FirmwareVersion>1.33</FirmwareVersion><APIVersion>1.33</APIVersion><USBHostControllerVersion>2.0</USBHostControllerVersion><USBConnectionRoute>USB#ROOT_HUB20#4&f63975&0#{f18a0e88-c30c-11d0-8815-00a0c906bed8} + USB#VID_8087&PID_0024#5&365d106a&0&1#{f18a0e88-c30c-11d0-8815-00a0c906bed8}(1) + VID_2266&PID_0007(2)</USBConnectionRoute></ChronosDeviceInfo>;"<?xml version=""1.0""?>\n<Clock xmlns:dt=""urn:schemas-microsoft-com:datatypes""><Description dt:dt=""string"">E-Prime Primary Realtime Clock</Description><StartTime><Timestamp dt:dt=""int"">0</Timestamp><DateUtc dt:dt=""string"">2013-09-12T06:53:53Z</DateUtc></StartTime><FrequencyChanges><FrequencyChange><Frequency dt:dt=""r8"">3312832</Frequency><Timestamp dt:dt=""r8"">12685803273</Timestamp><Current dt:dt=""r8"">0</Current><DateUtc dt:dt=""string"">2013-09-12T06:53:53Z</DateUtc></FrequencyChange></FrequencyChanges></Clock>\n";EXP2.2_290421-100020-1;59.951;1.0.0.347;1;Chronos;-198517043;Full;3.0.3.80;3.0.3.80;09/12/2013;12/09/2013 06:53;08:53:53;3.0.3.82;2;Chronos;;2;1;2;TESTVV;Generalbloc;;;;pretest;Chronos;41;1;VV_290421/885.png;3;1;41;-15;blocVVstim;listVVTrial;;;;Chronos;0;;0;1;257940;200;;0;0;1;1;Chronos;0;0;258140;300;1;373;258513;1;1;Chronos;0;0;258440;0;1;73;258513;;;;;;;;;;;;;;;;;;;
EXP2.2_290421;100020;1;Chronos;<ChronosDeviceInfo><FriendlyName>MyChronos</FriendlyName><DeviceIndex>1</DeviceIndex><SerialNumber>CHR-04301-1186</SerialNumber><EBNVersion>3.0.3.80</EBNVersion><FirmwareVersion>1.33</FirmwareVersion><APIVersion>1.33</APIVersion><USBHostControllerVersion>2.0</USBHostControllerVersion><USBConnectionRoute>USB#ROOT_HUB20#4&f63975&0#{f18a0e88-c30c-11d0-8815-00a0c906bed8} + USB#VID_8087&PID_0024#5&365d106a&0&1#{f18a0e88-c30c-11d0-8815-00a0c906bed8}(1) + VID_2266&PID_0007(2)</USBConnectionRoute></ChronosDeviceInfo>;"<?xml version=""1.0""?>\n<Clock xmlns:dt=""urn:schemas-microsoft-com:datatypes""><Description dt:dt=""string"">E-Prime Primary Realtime Clock</Description><StartTime><Timestamp dt:dt=""int"">0</Timestamp><DateUtc dt:dt=""string"">2013-09-12T06:53:53Z</DateUtc></StartTime><FrequencyChanges><FrequencyChange><Frequency dt:dt=""r8"">3312832</Frequency><Timestamp dt:dt=""r8"">12685803273</Timestamp><Current dt:dt=""r8"">0</Current><DateUtc dt:dt=""string"">2013-09-12T06:53:53Z</DateUtc></FrequencyChange></FrequencyChanges></Clock>\n";EXP2.2_290421-100020-1;59.951;1.0.0.347;1;Chronos;-198517043;Full;3.0.3.80;3.0.3.80;09/12/2013;12/09/2013 06:53;08:53:53;3.0.3.82;2;Chronos;;2;1;2;TESTVV;Generalbloc;;;;pretest;Chronos;42;1;VV_290421/885.png;3;1;42;-15;blocVVstim;listVVTrial;;;;Chronos;0;;0;1;260042;200;;0;0;1;1;Chronos;0;0;260242;0;1;92;260334;0;;;-999999;0;0;0;;0;0;;;;;;;;;;;;;;;;;;;
EXP2.2_290421;100020;1;Chronos;<ChronosDeviceInfo><FriendlyName>MyChronos</FriendlyName><DeviceIndex>1</DeviceIndex><SerialNumber>CHR-04301-1186</SerialNumber><EBNVersion>3.0.3.80</EBNVersion><FirmwareVersion>1.33</FirmwareVersion><APIVersion>1.33</APIVersion><USBHostControllerVersion>2.0</USBHostControllerVersion><USBConnectionRoute>USB#ROOT_HUB20#4&f63975&0#{f18a0e88-c30c-11d0-8815-00a0c906bed8} + USB#VID_8087&PID_0024#5&365d106a&0&1#{f18a0e88-c30c-11d0-8815-00a0c906bed8}(1) + VID_2266&PID_0007(2)</USBConnectionRoute></ChronosDeviceInfo>;"<?xml version=""1.0""?>\n<Clock xmlns:dt=""urn:schemas-microsoft-com:datatypes""><Description dt:dt=""string"">E-Prime Primary Realtime Clock</Description><StartTime><Timestamp dt:dt=""int"">0</Timestamp><DateUtc dt:dt=""string"">2013-09-12T06:53:53Z</DateUtc></StartTime><FrequencyChanges><FrequencyChange><Frequency dt:dt=""r8"">3312832</Frequency><Timestamp dt:dt=""r8"">12685803273</Timestamp><Current dt:dt=""r8"">0</Current><DateUtc dt:dt=""string"">2013-09-12T06:53:53Z</DateUtc></FrequencyChange></FrequencyChanges></Clock>\n";EXP2.2_290421-100020-1;59.951;1.0.0.347;1;Chronos;-198517043;Full;3.0.3.80;3.0.3.80;09/12/2013;12/09/2013 06:53;08:53:53;3.0.3.82;2;Chronos;;2;1;2;TESTVV;Generalbloc;;;;pretest;Chronos;43;5;VV_290421/925.png;11;1;43;25;blocVVstim;listVVTrial;;;;Chronos;0;;0;1;261860;200;;0;0;1;5;Chronos;0;0;262060;300;5;500;262560;1;5;Chronos;0;0;262360;0;5;200;262560;;;;;;;;;;;;;;;;;;;
EXP2.2_290421;100020;1;Chronos;<ChronosDeviceInfo><FriendlyName>MyChronos</FriendlyName><DeviceIndex>1</DeviceIndex><SerialNumber>CHR-04301-1186</SerialNumber><EBNVersion>3.0.3.80</EBNVersion><FirmwareVersion>1.33</FirmwareVersion><APIVersion>1.33</APIVersion><USBHostControllerVersion>2.0</USBHostControllerVersion><USBConnectionRoute>USB#ROOT_HUB20#4&f63975&0#{f18a0e88-c30c-11d0-8815-00a0c906bed8} + USB#VID_8087&PID_0024#5&365d106a&0&1#{f18a0e88-c30c-11d0-8815-00a0c906bed8}(1) + VID_2266&PID_0007(2)</USBConnectionRoute></ChronosDeviceInfo>;"<?xml version=""1.0""?>\n<Clock xmlns:dt=""urn:schemas-microsoft-com:datatypes""><Description dt:dt=""string"">E-Prime Primary Realtime Clock</Description><StartTime><Timestamp dt:dt=""int"">0</Timestamp><DateUtc dt:dt=""string"">2013-09-12T06:53:53Z</DateUtc></StartTime><FrequencyChanges><FrequencyChange><Frequency dt:dt=""r8"">3312832</Frequency><Timestamp dt:dt=""r8"">12685803273</Timestamp><Current dt:dt=""r8"">0</Current><DateUtc dt:dt=""string"">2013-09-12T06:53:53Z</DateUtc></FrequencyChange></FrequencyChanges></Clock>\n";EXP2.2_290421-100020-1;59.951;1.0.0.347;1;Chronos;-198517043;Full;3.0.3.80;3.0.3.80;09/12/2013;12/09/2013 06:53;08:53:53;3.0.3.82;2;Chronos;;2;1;2;TESTVV;Generalbloc;;;;pretest;Chronos;44;5;VV_290421/915.png;9;1;44;15;blocVVstim;listVVTrial;;;;Chronos;0;;0;1;264095;200;;0;0;1;5;Chronos;0;0;264295;301;5;551;264846;1;5;Chronos;0;1;264596;0;5;250;264846;;;;;;;;;;;;;;;;;;;
EXP2.2_290421;100020;1;Chronos;<ChronosDeviceInfo><FriendlyName>MyChronos</FriendlyName><DeviceIndex>1</DeviceIndex><SerialNumber>CHR-04301-1186</SerialNumber><EBNVersion>3.0.3.80</EBNVersion><FirmwareVersion>1.33</FirmwareVersion><APIVersion>1.33</APIVersion><USBHostControllerVersion>2.0</USBHostControllerVersion><USBConnectionRoute>USB#ROOT_HUB20#4&f63975&0#{f18a0e88-c30c-11d0-8815-00a0c906bed8} + USB#VID_8087&PID_0024#5&365d106a&0&1#{f18a0e88-c30c-11d0-8815-00a0c906bed8}(1) + VID_2266&PID_0007(2)</USBConnectionRoute></ChronosDeviceInfo>;"<?xml version=""1.0""?>\n<Clock xmlns:dt=""urn:schemas-microsoft-com:datatypes""><Description dt:dt=""string"">E-Prime Primary Realtime Clock</Description><StartTime><Timestamp dt:dt=""int"">0</Timestamp><DateUtc dt:dt=""string"">2013-09-12T06:53:53Z</DateUtc></StartTime><FrequencyChanges><FrequencyChange><Frequency dt:dt=""r8"">3312832</Frequency><Timestamp dt:dt=""r8"">12685803273</Timestamp><Current dt:dt=""r8"">0</Current><DateUtc dt:dt=""string"">2013-09-12T06:53:53Z</DateUtc></FrequencyChange></FrequencyChanges></Clock>\n";EXP2.2_290421-100020-1;59.951;1.0.0.347;1;Chronos;-198517043;Full;3.0.3.80;3.0.3.80;09/12/2013;12/09/2013 06:53;08:53:53;3.0.3.82;2;Chronos;;2;1;2;TESTVV;Generalbloc;;;;pretest;Chronos;45;1;VV_290421/885.png;3;1;45;-15;blocVVstim;listVVTrial;;;;Chronos;0;;0;1;266380;201;;0;0;1;1;Chronos;0;1;266581;300;1;403;266984;1;1;Chronos;0;0;266881;0;1;103;266984;;;;;;;;;;;;;;;;;;;
EXP2.2_290421;100020;1;Chronos;<ChronosDeviceInfo><FriendlyName>MyChronos</FriendlyName><DeviceIndex>1</DeviceIndex><SerialNumber>CHR-04301-1186</SerialNumber><EBNVersion>3.0.3.80</EBNVersion><FirmwareVersion>1.33</FirmwareVersion><APIVersion>1.33</APIVersion><USBHostControllerVersion>2.0</USBHostControllerVersion><USBConnectionRoute>USB#ROOT_HUB20#4&f63975&0#{f18a0e88-c30c-11d0-8815-00a0c906bed8} + USB#VID_8087&PID_0024#5&365d106a&0&1#{f18a0e88-c30c-11d0-8815-00a0c906bed8}(1) + VID_2266&PID_0007(2)</USBConnectionRoute></ChronosDeviceInfo>;"<?xml version=""1.0""?>\n<Clock xmlns:dt=""urn:schemas-microsoft-com:datatypes""><Description dt:dt=""string"">E-Prime Primary Realtime Clock</Description><StartTime><Timestamp dt:dt=""int"">0</Timestamp><DateUtc dt:dt=""string"">2013-09-12T06:53:53Z</DateUtc></StartTime><FrequencyChanges><FrequencyChange><Frequency dt:dt=""r8"">3312832</Frequency><Timestamp dt:dt=""r8"">12685803273</Timestamp><Current dt:dt=""r8"">0</Current><DateUtc dt:dt=""string"">2013-09-12T06:53:53Z</DateUtc></FrequencyChange></FrequencyChanges></Clock>\n";EXP2.2_290421-100020-1;59.951;1.0.0.347;1;Chronos;-198517043;Full;3.0.3.80;3.0.3.80;09/12/2013;12/09/2013 06:53;08:53:53;3.0.3.82;2;Chronos;;2;1;2;TESTVV;Generalbloc;;;;pretest;Chronos;46;15;VV_290421/900.png;6;1;46;0;blocVVstim;listVVTrial;;;;Chronos;0;;0;1;268515;201;;0;0;0;15;Chronos;0;1;268716;300;1;709;269425;0;15;Chronos;0;0;269016;0;1;409;269425;;;;;;;;;;;;;;;;;;;
EXP2.2_290421;100020;1;Chronos;<ChronosDeviceInfo><FriendlyName>MyChronos</FriendlyName><DeviceIndex>1</DeviceIndex><SerialNumber>CHR-04301-1186</SerialNumber><EBNVersion>3.0.3.80</EBNVersion><FirmwareVersion>1.33</FirmwareVersion><APIVersion>1.33</APIVersion><USBHostControllerVersion>2.0</USBHostControllerVersion><USBConnectionRoute>USB#ROOT_HUB20#4&f63975&0#{f18a0e88-c30c-11d0-8815-00a0c906bed8} + USB#VID_8087&PID_0024#5&365d106a&0&1#{f18a0e88-c30c-11d0-8815-00a0c906bed8}(1) + VID_2266&PID_0007(2)</USBConnectionRoute></ChronosDeviceInfo>;"<?xml version=""1.0""?>\n<Clock xmlns:dt=""urn:schemas-microsoft-com:datatypes""><Description dt:dt=""string"">E-Prime Primary Realtime Clock</Description><StartTime><Timestamp dt:dt=""int"">0</Timestamp><DateUtc dt:dt=""string"">2013-09-12T06:53:53Z</DateUtc></StartTime><FrequencyChanges><FrequencyChange><Frequency dt:dt=""r8"">3312832</Frequency><Timestamp dt:dt=""r8"">12685803273</Timestamp><Current dt:dt=""r8"">0</Current><DateUtc dt:dt=""string"">2013-09-12T06:53:53Z</DateUtc></FrequencyChange></FrequencyChanges></Clock>\n";EXP2.2_290421-100020-1;59.951;1.0.0.347;1;Chronos;-198517043;Full;3.0.3.80;3.0.3.80;09/12/2013;12/09/2013 06:53;08:53:53;3.0.3.82;2;Chronos;;2;1;2;TESTVV;Generalbloc;;;;pretest;Chronos;47;15;VV_290421/900.png;6;1;47;0;blocVVstim;listVVTrial;;;;Chronos;0;;0;1;270951;200;;0;0;0;15;Chronos;0;0;271151;300;1;420;271571;0;15;Chronos;0;0;271451;0;1;120;271571;;;;;;;;;;;;;;;;;;;
EXP2.2_290421;100020;1;Chronos;<ChronosDeviceInfo><FriendlyName>MyChronos</FriendlyName><DeviceIndex>1</DeviceIndex><SerialNumber>CHR-04301-1186</SerialNumber><EBNVersion>3.0.3.80</EBNVersion><FirmwareVersion>1.33</FirmwareVersion><APIVersion>1.33</APIVersion><USBHostControllerVersion>2.0</USBHostControllerVersion><USBConnectionRoute>USB#ROOT_HUB20#4&f63975&0#{f18a0e88-c30c-11d0-8815-00a0c906bed8} + USB#VID_8087&PID_0024#5&365d106a&0&1#{f18a0e88-c30c-11d0-8815-00a0c906bed8}(1) + VID_2266&PID_0007(2)</USBConnectionRoute></ChronosDeviceInfo>;"<?xml version=""1.0""?>\n<Clock xmlns:dt=""urn:schemas-microsoft-com:datatypes""><Description dt:dt=""string"">E-Prime Primary Realtime Clock</Description><StartTime><Timestamp dt:dt=""int"">0</Timestamp><DateUtc dt:dt=""string"">2013-09-12T06:53:53Z</DateUtc></StartTime><FrequencyChanges><FrequencyChange><Frequency dt:dt=""r8"">3312832</Frequency><Timestamp dt:dt=""r8"">12685803273</Timestamp><Current dt:dt=""r8"">0</Current><DateUtc dt:dt=""string"">2013-09-12T06:53:53Z</DateUtc></FrequencyChange></FrequencyChanges></Clock>\n";EXP2.2_290421-100020-1;59.951;1.0.0.347;1;Chronos;-198517043;Full;3.0.3.80;3.0.3.80;09/12/2013;12/09/2013 06:53;08:53:53;3.0.3.82;2;Chronos;;2;1;2;TESTVV;Generalbloc;;;;pretest;Chronos;48;5;VV_290421/915.png;9;1;48;15;blocVVstim;listVVTrial;;;;Chronos;0;;0;2;273103;200;;0;0;0;5;Chronos;0;0;273303;300;1;502;273805;0;5;Chronos;0;0;273603;0;1;202;273805;;;;;;;;;;;;;;;;;;;
EXP2.2_290421;100020;1;Chronos;<ChronosDeviceInfo><FriendlyName>MyChronos</FriendlyName><DeviceIndex>1</DeviceIndex><SerialNumber>CHR-04301-1186</SerialNumber><EBNVersion>3.0.3.80</EBNVersion><FirmwareVersion>1.33</FirmwareVersion><APIVersion>1.33</APIVersion><USBHostControllerVersion>2.0</USBHostControllerVersion><USBConnectionRoute>USB#ROOT_HUB20#4&f63975&0#{f18a0e88-c30c-11d0-8815-00a0c906bed8} + USB#VID_8087&PID_0024#5&365d106a&0&1#{f18a0e88-c30c-11d0-8815-00a0c906bed8}(1) + VID_2266&PID_0007(2)</USBConnectionRoute></ChronosDeviceInfo>;"<?xml version=""1.0""?>\n<Clock xmlns:dt=""urn:schemas-microsoft-com:datatypes""><Description dt:dt=""string"">E-Prime Primary Realtime Clock</Description><StartTime><Timestamp dt:dt=""int"">0</Timestamp><DateUtc dt:dt=""string"">2013-09-12T06:53:53Z</DateUtc></StartTime><FrequencyChanges><FrequencyChange><Frequency dt:dt=""r8"">3312832</Frequency><Timestamp dt:dt=""r8"">12685803273</Timestamp><Current dt:dt=""r8"">0</Current><DateUtc dt:dt=""string"">2013-09-12T06:53:53Z</DateUtc></FrequencyChange></FrequencyChanges></Clock>\n";EXP2.2_290421-100020-1;59.951;1.0.0.347;1;Chronos;-198517043;Full;3.0.3.80;3.0.3.80;09/12/2013;12/09/2013 06:53;08:53:53;3.0.3.82;2;Chronos;;2;1;2;TESTVV;Generalbloc;;;;pretest;Chronos;49;1;VV_290421/880.png;2;1;49;-20;blocVVstim;listVVTrial;;;;Chronos;0;;0;2;275338;200;;0;0;1;1;Chronos;0;0;275538;300;1;474;276012;1;1;Chronos;0;0;275838;0;1;174;276012;;;;;;;;;;;;;;;;;;;
EXP2.2_290421;100020;1;Chronos;<ChronosDeviceInfo><FriendlyName>MyChronos</FriendlyName><DeviceIndex>1</DeviceIndex><SerialNumber>CHR-04301-1186</SerialNumber><EBNVersion>3.0.3.80</EBNVersion><FirmwareVersion>1.33</FirmwareVersion><APIVersion>1.33</APIVersion><USBHostControllerVersion>2.0</USBHostControllerVersion><USBConnectionRoute>USB#ROOT_HUB20#4&f63975&0#{f18a0e88-c30c-11d0-8815-00a0c906bed8} + USB#VID_8087&PID_0024#5&365d106a&0&1#{f18a0e88-c30c-11d0-8815-00a0c906bed8}(1) + VID_2266&PID_0007(2)</USBConnectionRoute></ChronosDeviceInfo>;"<?xml version=""1.0""?>\n<Clock xmlns:dt=""urn:schemas-microsoft-com:datatypes""><Description dt:dt=""string"">E-Prime Primary Realtime Clock</Description><StartTime><Timestamp dt:dt=""int"">0</Timestamp><DateUtc dt:dt=""string"">2013-09-12T06:53:53Z</DateUtc></StartTime><FrequencyChanges><FrequencyChange><Frequency dt:dt=""r8"">3312832</Frequency><Timestamp dt:dt=""r8"">12685803273</Timestamp><Current dt:dt=""r8"">0</Current><DateUtc dt:dt=""string"">2013-09-12T06:53:53Z</DateUtc></FrequencyChange></FrequencyChanges></Clock>\n";EXP2.2_290421-100020-1;59.951;1.0.0.347;1;Chronos;-198517043;Full;3.0.3.80;3.0.3.80;09/12/2013;12/09/2013 06:53;08:53:53;3.0.3.82;2;Chronos;;2;1;2;TESTVV;Generalbloc;;;;pretest;Chronos;50;5;VV_290421/905.png;7;1;50;5;blocVVstim;listVVTrial;;;;Chronos;0;;0;2;277540;200;;0;0;0;5;Chronos;0;0;277740;300;1;401;278141;0;5;Chronos;0;0;278040;0;1;101;278141;;;;;;;;;;;;;;;;;;;
EXP2.2_290421;100020;1;Chronos;<ChronosDeviceInfo><FriendlyName>MyChronos</FriendlyName><DeviceIndex>1</DeviceIndex><SerialNumber>CHR-04301-1186</SerialNumber><EBNVersion>3.0.3.80</EBNVersion><FirmwareVersion>1.33</FirmwareVersion><APIVersion>1.33</APIVersion><USBHostControllerVersion>2.0</USBHostControllerVersion><USBConnectionRoute>USB#ROOT_HUB20#4&f63975&0#{f18a0e88-c30c-11d0-8815-00a0c906bed8} + USB#VID_8087&PID_0024#5&365d106a&0&1#{f18a0e88-c30c-11d0-8815-00a0c906bed8}(1) + VID_2266&PID_0007(2)</USBConnectionRoute></ChronosDeviceInfo>;"<?xml version=""1.0""?>\n<Clock xmlns:dt=""urn:schemas-microsoft-com:datatypes""><Description dt:dt=""string"">E-Prime Primary Realtime Clock</Description><StartTime><Timestamp dt:dt=""int"">0</Timestamp><DateUtc dt:dt=""string"">2013-09-12T06:53:53Z</DateUtc></StartTime><FrequencyChanges><FrequencyChange><Frequency dt:dt=""r8"">3312832</Frequency><Timestamp dt:dt=""r8"">12685803273</Timestamp><Current dt:dt=""r8"">0</Current><DateUtc dt:dt=""string"">2013-09-12T06:53:53Z</DateUtc></FrequencyChange></FrequencyChanges></Clock>\n";EXP2.2_290421-100020-1;59.951;1.0.0.347;1;Chronos;-198517043;Full;3.0.3.80;3.0.3.80;09/12/2013;12/09/2013 06:53;08:53:53;3.0.3.82;2;Chronos;;2;1;2;TESTVV;Generalbloc;;;;pretest;Chronos;51;5;VV_290421/920.png;10;1;51;20;blocVVstim;listVVTrial;;;;Chronos;0;;0;2;279675;200;;0;0;1;5;Chronos;0;0;279875;300;5;452;280327;1;5;Chronos;0;0;280175;0;5;152;280327;;;;;;;;;;;;;;;;;;;
EXP2.2_290421;100020;1;Chronos;<ChronosDeviceInfo><FriendlyName>MyChronos</FriendlyName><DeviceIndex>1</DeviceIndex><SerialNumber>CHR-04301-1186</SerialNumber><EBNVersion>3.0.3.80</EBNVersion><FirmwareVersion>1.33</FirmwareVersion><APIVersion>1.33</APIVersion><USBHostControllerVersion>2.0</USBHostControllerVersion><USBConnectionRoute>USB#ROOT_HUB20#4&f63975&0#{f18a0e88-c30c-11d0-8815-00a0c906bed8} + USB#VID_8087&PID_0024#5&365d106a&0&1#{f18a0e88-c30c-11d0-8815-00a0c906bed8}(1) + VID_2266&PID_0007(2)</USBConnectionRoute></ChronosDeviceInfo>;"<?xml version=""1.0""?>\n<Clock xmlns:dt=""urn:schemas-microsoft-com:datatypes""><Description dt:dt=""string"">E-Prime Primary Realtime Clock</Description><StartTime><Timestamp dt:dt=""int"">0</Timestamp><DateUtc dt:dt=""string"">2013-09-12T06:53:53Z</DateUtc></StartTime><FrequencyChanges><FrequencyChange><Frequency dt:dt=""r8"">3312832</Frequency><Timestamp dt:dt=""r8"">12685803273</Timestamp><Current dt:dt=""r8"">0</Current><DateUtc dt:dt=""string"">2013-09-12T06:53:53Z</DateUtc></FrequencyChange></FrequencyChanges></Clock>\n";EXP2.2_290421-100020-1;59.951;1.0.0.347;1;Chronos;-198517043;Full;3.0.3.80;3.0.3.80;09/12/2013;12/09/2013 06:53;08:53:53;3.0.3.82;2;Chronos;;2;1;2;TESTVV;Generalbloc;;;;pretest;Chronos;52;5;VV_290421/920.png;10;1;52;20;blocVVstim;listVVTrial;;;;Chronos;0;;0;1;281860;200;;0;0;0;5;Chronos;0;0;282060;300;1;585;282645;0;5;Chronos;0;0;282360;0;1;285;282645;;;;;;;;;;;;;;;;;;;
EXP2.2_290421;100020;1;Chronos;<ChronosDeviceInfo><FriendlyName>MyChronos</FriendlyName><DeviceIndex>1</DeviceIndex><SerialNumber>CHR-04301-1186</SerialNumber><EBNVersion>3.0.3.80</EBNVersion><FirmwareVersion>1.33</FirmwareVersion><APIVersion>1.33</APIVersion><USBHostControllerVersion>2.0</USBHostControllerVersion><USBConnectionRoute>USB#ROOT_HUB20#4&f63975&0#{f18a0e88-c30c-11d0-8815-00a0c906bed8} + USB#VID_8087&PID_0024#5&365d106a&0&1#{f18a0e88-c30c-11d0-8815-00a0c906bed8}(1) + VID_2266&PID_0007(2)</USBConnectionRoute></ChronosDeviceInfo>;"<?xml version=""1.0""?>\n<Clock xmlns:dt=""urn:schemas-microsoft-com:datatypes""><Description dt:dt=""string"">E-Prime Primary Realtime Clock</Description><StartTime><Timestamp dt:dt=""int"">0</Timestamp><DateUtc dt:dt=""string"">2013-09-12T06:53:53Z</DateUtc></StartTime><FrequencyChanges><FrequencyChange><Frequency dt:dt=""r8"">3312832</Frequency><Timestamp dt:dt=""r8"">12685803273</Timestamp><Current dt:dt=""r8"">0</Current><DateUtc dt:dt=""string"">2013-09-12T06:53:53Z</DateUtc></FrequencyChange></FrequencyChanges></Clock>\n";EXP2.2_290421-100020-1;59.951;1.0.0.347;1;Chronos;-198517043;Full;3.0.3.80;3.0.3.80;09/12/2013;12/09/2013 06:53;08:53:53;3.0.3.82;2;Chronos;;2;1;2;TESTVV;Generalbloc;;;;pretest;Chronos;53;15;VV_290421/900.png;6;1;53;0;blocVVstim;listVVTrial;;;;Chronos;0;;0;1;284178;201;;0;0;0;15;Chronos;0;1;284379;300;1;596;284975;0;15;Chronos;0;0;284679;0;1;296;284975;;;;;;;;;;;;;;;;;;;
EXP2.2_290421;100020;1;Chronos;<ChronosDeviceInfo><FriendlyName>MyChronos</FriendlyName><DeviceIndex>1</DeviceIndex><SerialNumber>CHR-04301-1186</SerialNumber><EBNVersion>3.0.3.80</EBNVersion><FirmwareVersion>1.33</FirmwareVersion><APIVersion>1.33</APIVersion><USBHostControllerVersion>2.0</USBHostControllerVersion><USBConnectionRoute>USB#ROOT_HUB20#4&f63975&0#{f18a0e88-c30c-11d0-8815-00a0c906bed8} + USB#VID_8087&PID_0024#5&365d106a&0&1#{f18a0e88-c30c-11d0-8815-00a0c906bed8}(1) + VID_2266&PID_0007(2)</USBConnectionRoute></ChronosDeviceInfo>;"<?xml version=""1.0""?>\n<Clock xmlns:dt=""urn:schemas-microsoft-com:datatypes""><Description dt:dt=""string"">E-Prime Primary Realtime Clock</Description><StartTime><Timestamp dt:dt=""int"">0</Timestamp><DateUtc dt:dt=""string"">2013-09-12T06:53:53Z</DateUtc></StartTime><FrequencyChanges><FrequencyChange><Frequency dt:dt=""r8"">3312832</Frequency><Timestamp dt:dt=""r8"">12685803273</Timestamp><Current dt:dt=""r8"">0</Current><DateUtc dt:dt=""string"">2013-09-12T06:53:53Z</DateUtc></FrequencyChange></FrequencyChanges></Clock>\n";EXP2.2_290421-100020-1;59.951;1.0.0.347;1;Chronos;-198517043;Full;3.0.3.80;3.0.3.80;09/12/2013;12/09/2013 06:53;08:53:53;3.0.3.82;2;Chronos;;2;1;2;TESTVV;Generalbloc;;;;pretest;Chronos;54;1;VV_290421/885.png;3;1;54;-15;blocVVstim;listVVTrial;;;;Chronos;0;;0;2;286514;200;;0;0;1;1;Chronos;0;0;286714;300;1;384;287098;1;1;Chronos;0;0;287014;0;1;84;287098;;;;;;;;;;;;;;;;;;;
EXP2.2_290421;100020;1;Chronos;<ChronosDeviceInfo><FriendlyName>MyChronos</FriendlyName><DeviceIndex>1</DeviceIndex><SerialNumber>CHR-04301-1186</SerialNumber><EBNVersion>3.0.3.80</EBNVersion><FirmwareVersion>1.33</FirmwareVersion><APIVersion>1.33</APIVersion><USBHostControllerVersion>2.0</USBHostControllerVersion><USBConnectionRoute>USB#ROOT_HUB20#4&f63975&0#{f18a0e88-c30c-11d0-8815-00a0c906bed8} + USB#VID_8087&PID_0024#5&365d106a&0&1#{f18a0e88-c30c-11d0-8815-00a0c906bed8}(1) + VID_2266&PID_0007(2)</USBConnectionRoute></ChronosDeviceInfo>;"<?xml version=""1.0""?>\n<Clock xmlns:dt=""urn:schemas-microsoft-com:datatypes""><Description dt:dt=""string"">E-Prime Primary Realtime Clock</Description><StartTime><Timestamp dt:dt=""int"">0</Timestamp><DateUtc dt:dt=""string"">2013-09-12T06:53:53Z</DateUtc></StartTime><FrequencyChanges><FrequencyChange><Frequency dt:dt=""r8"">3312832</Frequency><Timestamp dt:dt=""r8"">12685803273</Timestamp><Current dt:dt=""r8"">0</Current><DateUtc dt:dt=""string"">2013-09-12T06:53:53Z</DateUtc></FrequencyChange></FrequencyChanges></Clock>\n";EXP2.2_290421-100020-1;59.951;1.0.0.347;1;Chronos;-198517043;Full;3.0.3.80;3.0.3.80;09/12/2013;12/09/2013 06:53;08:53:53;3.0.3.82;2;Chronos;;2;1;2;TESTVV;Generalbloc;;;;pretest;Chronos;55;1;VV_290421/890.png;4;1;55;-10;blocVVstim;listVVTrial;;;;Chronos;0;;0;1;288632;200;;0;0;1;1;Chronos;0;0;288832;300;1;444;289276;1;1;Chronos;1;0;289132;0;1;144;289276;;;;;;;;;;;;;;;;;;;
EXP2.2_290421;100020;1;Chronos;<ChronosDeviceInfo><FriendlyName>MyChronos</FriendlyName><DeviceIndex>1</DeviceIndex><SerialNumber>CHR-04301-1186</SerialNumber><EBNVersion>3.0.3.80</EBNVersion><FirmwareVersion>1.33</FirmwareVersion><APIVersion>1.33</APIVersion><USBHostControllerVersion>2.0</USBHostControllerVersion><USBConnectionRoute>USB#ROOT_HUB20#4&f63975&0#{f18a0e88-c30c-11d0-8815-00a0c906bed8} + USB#VID_8087&PID_0024#5&365d106a&0&1#{f18a0e88-c30c-11d0-8815-00a0c906bed8}(1) + VID_2266&PID_0007(2)</USBConnectionRoute></ChronosDeviceInfo>;"<?xml version=""1.0""?>\n<Clock xmlns:dt=""urn:schemas-microsoft-com:datatypes""><Description dt:dt=""string"">E-Prime Primary Realtime Clock</Description><StartTime><Timestamp dt:dt=""int"">0</Timestamp><DateUtc dt:dt=""string"">2013-09-12T06:53:53Z</DateUtc></StartTime><FrequencyChanges><FrequencyChange><Frequency dt:dt=""r8"">3312832</Frequency><Timestamp dt:dt=""r8"">12685803273</Timestamp><Current dt:dt=""r8"">0</Current><DateUtc dt:dt=""string"">2013-09-12T06:53:53Z</DateUtc></FrequencyChange></FrequencyChanges></Clock>\n";EXP2.2_290421-100020-1;59.951;1.0.0.347;1;Chronos;-198517043;Full;3.0.3.80;3.0.3.80;09/12/2013;12/09/2013 06:53;08:53:53;3.0.3.82;2;Chronos;;2;1;2;TESTVV;Generalbloc;;;;pretest;Chronos;56;1;VV_290421/890.png;4;1;56;-10;blocVVstim;listVVTrial;;;;Chronos;0;;0;2;290801;200;;0;0;1;1;Chronos;0;0;291001;300;1;479;291480;1;1;Chronos;0;0;291301;0;1;179;291480;;;;;;;;;;;;;;;;;;;
EXP2.2_290421;100020;1;Chronos;<ChronosDeviceInfo><FriendlyName>MyChronos</FriendlyName><DeviceIndex>1</DeviceIndex><SerialNumber>CHR-04301-1186</SerialNumber><EBNVersion>3.0.3.80</EBNVersion><FirmwareVersion>1.33</FirmwareVersion><APIVersion>1.33</APIVersion><USBHostControllerVersion>2.0</USBHostControllerVersion><USBConnectionRoute>USB#ROOT_HUB20#4&f63975&0#{f18a0e88-c30c-11d0-8815-00a0c906bed8} + USB#VID_8087&PID_0024#5&365d106a&0&1#{f18a0e88-c30c-11d0-8815-00a0c906bed8}(1) + VID_2266&PID_0007(2)</USBConnectionRoute></ChronosDeviceInfo>;"<?xml version=""1.0""?>\n<Clock xmlns:dt=""urn:schemas-microsoft-com:datatypes""><Description dt:dt=""string"">E-Prime Primary Realtime Clock</Description><StartTime><Timestamp dt:dt=""int"">0</Timestamp><DateUtc dt:dt=""string"">2013-09-12T06:53:53Z</DateUtc></StartTime><FrequencyChanges><FrequencyChange><Frequency dt:dt=""r8"">3312832</Frequency><Timestamp dt:dt=""r8"">12685803273</Timestamp><Current dt:dt=""r8"">0</Current><DateUtc dt:dt=""string"">2013-09-12T06:53:53Z</DateUtc></FrequencyChange></FrequencyChanges></Clock>\n";EXP2.2_290421-100020-1;59.951;1.0.0.347;1;Chronos;-198517043;Full;3.0.3.80;3.0.3.80;09/12/2013;12/09/2013 06:53;08:53:53;3.0.3.82;2;Chronos;;2;1;2;TESTVV;Generalbloc;;;;pretest;Chronos;57;1;VV_290421/885.png;3;1;57;-15;blocVVstim;listVVTrial;;;;Chronos;0;;0;1;293002;201;;0;0;1;1;Chronos;0;1;293203;300;1;374;293577;1;1;Chronos;0;0;293503;0;1;74;293577;;;;;;;;;;;;;;;;;;;
EXP2.2_290421;100020;1;Chronos;<ChronosDeviceInfo><FriendlyName>MyChronos</FriendlyName><DeviceIndex>1</DeviceIndex><SerialNumber>CHR-04301-1186</SerialNumber><EBNVersion>3.0.3.80</EBNVersion><FirmwareVersion>1.33</FirmwareVersion><APIVersion>1.33</APIVersion><USBHostControllerVersion>2.0</USBHostControllerVersion><USBConnectionRoute>USB#ROOT_HUB20#4&f63975&0#{f18a0e88-c30c-11d0-8815-00a0c906bed8} + USB#VID_8087&PID_0024#5&365d106a&0&1#{f18a0e88-c30c-11d0-8815-00a0c906bed8}(1) + VID_2266&PID_0007(2)</USBConnectionRoute></ChronosDeviceInfo>;"<?xml version=""1.0""?>\n<Clock xmlns:dt=""urn:schemas-microsoft-com:datatypes""><Description dt:dt=""string"">E-Prime Primary Realtime Clock</Description><StartTime><Timestamp dt:dt=""int"">0</Timestamp><DateUtc dt:dt=""string"">2013-09-12T06:53:53Z</DateUtc></StartTime><FrequencyChanges><FrequencyChange><Frequency dt:dt=""r8"">3312832</Frequency><Timestamp dt:dt=""r8"">12685803273</Timestamp><Current dt:dt=""r8"">0</Current><DateUtc dt:dt=""string"">2013-09-12T06:53:53Z</DateUtc></FrequencyChange></FrequencyChanges></Clock>\n";EXP2.2_290421-100020-1;59.951;1.0.0.347;1;Chronos;-198517043;Full;3.0.3.80;3.0.3.80;09/12/2013;12/09/2013 06:53;08:53:53;3.0.3.82;2;Chronos;;2;1;2;TESTVV;Generalbloc;;;;pretest;Chronos;58;5;VV_290421/915.png;9;1;58;15;blocVVstim;listVVTrial;;;;Chronos;0;;0;1;295104;200;;0;0;1;5;Chronos;0;0;295304;301;5;592;295896;1;5;Chronos;0;1;295605;0;5;291;295896;;;;;;;;;;;;;;;;;;;
EXP2.2_290421;100020;1;Chronos;<ChronosDeviceInfo><FriendlyName>MyChronos</FriendlyName><DeviceIndex>1</DeviceIndex><SerialNumber>CHR-04301-1186</SerialNumber><EBNVersion>3.0.3.80</EBNVersion><FirmwareVersion>1.33</FirmwareVersion><APIVersion>1.33</APIVersion><USBHostControllerVersion>2.0</USBHostControllerVersion><USBConnectionRoute>USB#ROOT_HUB20#4&f63975&0#{f18a0e88-c30c-11d0-8815-00a0c906bed8} + USB#VID_8087&PID_0024#5&365d106a&0&1#{f18a0e88-c30c-11d0-8815-00a0c906bed8}(1) + VID_2266&PID_0007(2)</USBConnectionRoute></ChronosDeviceInfo>;"<?xml version=""1.0""?>\n<Clock xmlns:dt=""urn:schemas-microsoft-com:datatypes""><Description dt:dt=""string"">E-Prime Primary Realtime Clock</Description><StartTime><Timestamp dt:dt=""int"">0</Timestamp><DateUtc dt:dt=""string"">2013-09-12T06:53:53Z</DateUtc></StartTime><FrequencyChanges><FrequencyChange><Frequency dt:dt=""r8"">3312832</Frequency><Timestamp dt:dt=""r8"">12685803273</Timestamp><Current dt:dt=""r8"">0</Current><DateUtc dt:dt=""string"">2013-09-12T06:53:53Z</DateUtc></FrequencyChange></FrequencyChanges></Clock>\n";EXP2.2_290421-100020-1;59.951;1.0.0.347;1;Chronos;-198517043;Full;3.0.3.80;3.0.3.80;09/12/2013;12/09/2013 06:53;08:53:53;3.0.3.82;2;Chronos;;2;1;2;TESTVV;Generalbloc;;;;pretest;Chronos;59;5;VV_290421/925.png;11;1;59;25;blocVVstim;listVVTrial;;;;Chronos;0;;0;2;297423;200;;0;0;1;5;Chronos;0;0;297623;300;5;450;298073;1;5;Chronos;0;0;297923;0;5;150;298073;;;;;;;;;;;;;;;;;;;
EXP2.2_290421;100020;1;Chronos;<ChronosDeviceInfo><FriendlyName>MyChronos</FriendlyName><DeviceIndex>1</DeviceIndex><SerialNumber>CHR-04301-1186</SerialNumber><EBNVersion>3.0.3.80</EBNVersion><FirmwareVersion>1.33</FirmwareVersion><APIVersion>1.33</APIVersion><USBHostControllerVersion>2.0</USBHostControllerVersion><USBConnectionRoute>USB#ROOT_HUB20#4&f63975&0#{f18a0e88-c30c-11d0-8815-00a0c906bed8} + USB#VID_8087&PID_0024#5&365d106a&0&1#{f18a0e88-c30c-11d0-8815-00a0c906bed8}(1) + VID_2266&PID_0007(2)</USBConnectionRoute></ChronosDeviceInfo>;"<?xml version=""1.0""?>\n<Clock xmlns:dt=""urn:schemas-microsoft-com:datatypes""><Description dt:dt=""string"">E-Prime Primary Realtime Clock</Description><StartTime><Timestamp dt:dt=""int"">0</Timestamp><DateUtc dt:dt=""string"">2013-09-12T06:53:53Z</DateUtc></StartTime><FrequencyChanges><FrequencyChange><Frequency dt:dt=""r8"">3312832</Frequency><Timestamp dt:dt=""r8"">12685803273</Timestamp><Current dt:dt=""r8"">0</Current><DateUtc dt:dt=""string"">2013-09-12T06:53:53Z</DateUtc></FrequencyChange></FrequencyChanges></Clock>\n";EXP2.2_290421-100020-1;59.951;1.0.0.347;1;Chronos;-198517043;Full;3.0.3.80;3.0.3.80;09/12/2013;12/09/2013 06:53;08:53:53;3.0.3.82;2;Chronos;;2;1;2;TESTVV;Generalbloc;;;;pretest;Chronos;60;5;VV_290421/925.png;11;1;60;25;blocVVstim;listVVTrial;;;;Chronos;0;;0;1;299608;200;;0;0;1;5;Chronos;0;0;299808;300;5;659;300467;1;5;Chronos;0;0;300108;0;5;359;300467;;;;;;;;;;;;;;;;;;;
EXP2.2_290421;100020;1;Chronos;<ChronosDeviceInfo><FriendlyName>MyChronos</FriendlyName><DeviceIndex>1</DeviceIndex><SerialNumber>CHR-04301-1186</SerialNumber><EBNVersion>3.0.3.80</EBNVersion><FirmwareVersion>1.33</FirmwareVersion><APIVersion>1.33</APIVersion><USBHostControllerVersion>2.0</USBHostControllerVersion><USBConnectionRoute>USB#ROOT_HUB20#4&f63975&0#{f18a0e88-c30c-11d0-8815-00a0c906bed8} + USB#VID_8087&PID_0024#5&365d106a&0&1#{f18a0e88-c30c-11d0-8815-00a0c906bed8}(1) + VID_2266&PID_0007(2)</USBConnectionRoute></ChronosDeviceInfo>;"<?xml version=""1.0""?>\n<Clock xmlns:dt=""urn:schemas-microsoft-com:datatypes""><Description dt:dt=""string"">E-Prime Primary Realtime Clock</Description><StartTime><Timestamp dt:dt=""int"">0</Timestamp><DateUtc dt:dt=""string"">2013-09-12T06:53:53Z</DateUtc></StartTime><FrequencyChanges><FrequencyChange><Frequency dt:dt=""r8"">3312832</Frequency><Timestamp dt:dt=""r8"">12685803273</Timestamp><Current dt:dt=""r8"">0</Current><DateUtc dt:dt=""string"">2013-09-12T06:53:53Z</DateUtc></FrequencyChange></FrequencyChanges></Clock>\n";EXP2.2_290421-100020-1;59.951;1.0.0.347;1;Chronos;-198517043;Full;3.0.3.80;3.0.3.80;09/12/2013;12/09/2013 06:53;08:53:53;3.0.3.82;2;Chronos;;2;1;2;TESTVV;Generalbloc;;;;pretest;Chronos;61;1;VV_290421/880.png;2;1;61;-20;blocVVstim;listVVTrial;;;;Chronos;0;;0;1;301993;200;;0;0;1;1;Chronos;0;0;302193;301;1;519;302712;1;1;Chronos;0;1;302494;0;1;218;302712;;;;;;;;;;;;;;;;;;;
