ExperimentName;Subject;Session;calibrage.DEVICE[Session];Chronos.BoxInfo;Clock.Information;DataFile.Basename;Display.RefreshRate;ExperimentVersion;Group;Hello.DEVICE;RandomSeed;RuntimeCapabilities;RuntimeVersion;RuntimeVersionExpected;SessionDate;SessionStartDateTimeUtc;SessionTime;StudioVersion;Block;calibrage.DEVICE[Block];EndTraining.DEVICE;Generalbloc;Generalbloc.Cycle;Generalbloc.Sample;Procedure[Block];Running[Block];TextDisplay1.DEVICE;TextDisplay2.DEVICE;TextTraining.DEVICE;time;VVInst.DEVICE[Block];Trial;correct;image;listVVTrial;listVVTrial.Cycle;listVVTrial.Sample;offset;Procedure[Trial];Running[Trial];SpatialTaskTraining;SpatialTaskTraining.Cycle;SpatialTaskTraining.Sample;VVInst.DEVICE[Trial];vvstimnoresp.ACC;vvstimnoresp.CRESP;vvstimnoresp.DurationError;vvstimnoresp.OnsetDelay;vvstimnoresp.OnsetTime;vvstimnoresp.OnsetToOnsetTime;vvstimnoresp.RESP;vvstimnoresp.RT;vvstimnoresp.RTTime;vvstimresp1.ACC;vvstimresp1.CRESP;vvstimresp1.DEVICE;vvstimresp1.DurationError;vvstimresp1.OnsetDelay;vvstimresp1.OnsetTime;vvstimresp1.OnsetToOnsetTime;vvstimresp1.RESP;vvstimresp1.RT;vvstimresp1.RTTime;vvstimresp2.ACC;vvstimresp2.CRESP;vvstimresp2.DEVICE;vvstimresp2.DurationError;vvstimresp2.OnsetDelay;vvstimresp2.OnsetTime;vvstimresp2.OnsetToOnsetTime;vvstimresp2.RESP;vvstimresp2.RT;vvstimresp2.RTTime;SubTrial;LISTVVRANDOM1;LISTVVRANDOM1.Cycle;LISTVVRANDOM1.Sample;LISTVVRANDOM2;Procedure[SubTrial];Running[SubTrial];VVR;VVRANDOM;VVRANDOMRESP.ACC;VVRANDOMRESP.CRESP;VVRANDOMRESP.DEVICE;VVRANDOMRESP.DurationError;VVRANDOMRESP.OnsetDelay;VVRANDOMRESP.OnsetTime;VVRANDOMRESP.OnsetToOnsetTime;VVRANDOMRESP.RESP;VVRANDOMRESP.RT;VVRANDOMRESP.RTTime
EXP2.2_290421;10023;1;Chronos;<ChronosDeviceInfo><FriendlyName>MyChronos</FriendlyName><DeviceIndex>1</DeviceIndex><SerialNumber>CHR-04301-1186</SerialNumber><EBNVersion>3.0.3.80</EBNVersion><FirmwareVersion>1.33</FirmwareVersion><APIVersion>1.33</APIVersion><USBHostControllerVersion>2.0</USBHostControllerVersion><USBConnectionRoute>USB#ROOT_HUB20#4&f63975&0#{f18a0e88-c30c-11d0-8815-00a0c906bed8} + USB#VID_8087&PID_0024#5&365d106a&0&1#{f18a0e88-c30c-11d0-8815-00a0c906bed8}(1) + VID_2266&PID_0007(2)</USBConnectionRoute></ChronosDeviceInfo>;"<?xml version=""1.0""?>\n<Clock xmlns:dt=""urn:schemas-microsoft-com:datatypes""><Description dt:dt=""string"">E-Prime Primary Realtime Clock</Description><StartTime><Timestamp dt:dt=""int"">0</Timestamp><DateUtc dt:dt=""string"">2013-09-14T08:47:42Z</DateUtc></StartTime><FrequencyChanges><FrequencyChange><Frequency dt:dt=""r8"">3312832</Frequency><Timestamp dt:dt=""r8"">607714425654</Timestamp><Current dt:dt=""r8"">0</Current><DateUtc dt:dt=""string"">2013-09-14T08:47:42Z</DateUtc></FrequencyChange></FrequencyChanges></Clock>\n";EXP2.2_290421-10023-1;59.951;1.0.0.369;1;Chronos;2124611688;Full;3.0.3.80;3.0.3.80;09-14-2013;14/09/2013 08:47;10:47:43;3.0.3.82;1;Chronos;Chronos;1;1;1;Training;Generalbloc;;;Chronos;pretest;;1;;;;;;;TRAININGVV;SpatialTaskTraining;1;1;1;Chronos;;;;;;;;;;;;;;;;;;;;;;;;;;;;;;1;1;1;1;1;blocVVstimTraining;LISTVVRANDOM1;VV_110521/875.png;VV_110521/880.png;0;;Chronos;-999999;0;131296;0;1;1033;132329
EXP2.2_290421;10023;1;Chronos;<ChronosDeviceInfo><FriendlyName>MyChronos</FriendlyName><DeviceIndex>1</DeviceIndex><SerialNumber>CHR-04301-1186</SerialNumber><EBNVersion>3.0.3.80</EBNVersion><FirmwareVersion>1.33</FirmwareVersion><APIVersion>1.33</APIVersion><USBHostControllerVersion>2.0</USBHostControllerVersion><USBConnectionRoute>USB#ROOT_HUB20#4&f63975&0#{f18a0e88-c30c-11d0-8815-00a0c906bed8} + USB#VID_8087&PID_0024#5&365d106a&0&1#{f18a0e88-c30c-11d0-8815-00a0c906bed8}(1) + VID_2266&PID_0007(2)</USBConnectionRoute></ChronosDeviceInfo>;"<?xml version=""1.0""?>\n<Clock xmlns:dt=""urn:schemas-microsoft-com:datatypes""><Description dt:dt=""string"">E-Prime Primary Realtime Clock</Description><StartTime><Timestamp dt:dt=""int"">0</Timestamp><DateUtc dt:dt=""string"">2013-09-14T08:47:42Z</DateUtc></StartTime><FrequencyChanges><FrequencyChange><Frequency dt:dt=""r8"">3312832</Frequency><Timestamp dt:dt=""r8"">607714425654</Timestamp><Current dt:dt=""r8"">0</Current><DateUtc dt:dt=""string"">2013-09-14T08:47:42Z</DateUtc></FrequencyChange></FrequencyChanges></Clock>\n";EXP2.2_290421-10023-1;59.951;1.0.0.369;1;Chronos;2124611688;Full;3.0.3.80;3.0.3.80;09-14-2013;14/09/2013 08:47;10:47:43;3.0.3.82;1;Chronos;Chronos;1;1;1;Training;Generalbloc;;;Chronos;pretest;;1;;;;;;;TRAININGVV;SpatialTaskTraining;1;1;1;Chronos;;;;;;;;;;;;;;;;;;;;;;;;;;;;;;2;1;1;2;3;blocVVstimTraining;LISTVVRANDOM1;VV_110521/885.png;VV_110521/890.png;0;;Chronos;-999999;0;134365;0;5;1540;135905
EXP2.2_290421;10023;1;Chronos;<ChronosDeviceInfo><FriendlyName>MyChronos</FriendlyName><DeviceIndex>1</DeviceIndex><SerialNumber>CHR-04301-1186</SerialNumber><EBNVersion>3.0.3.80</EBNVersion><FirmwareVersion>1.33</FirmwareVersion><APIVersion>1.33</APIVersion><USBHostControllerVersion>2.0</USBHostControllerVersion><USBConnectionRoute>USB#ROOT_HUB20#4&f63975&0#{f18a0e88-c30c-11d0-8815-00a0c906bed8} + USB#VID_8087&PID_0024#5&365d106a&0&1#{f18a0e88-c30c-11d0-8815-00a0c906bed8}(1) + VID_2266&PID_0007(2)</USBConnectionRoute></ChronosDeviceInfo>;"<?xml version=""1.0""?>\n<Clock xmlns:dt=""urn:schemas-microsoft-com:datatypes""><Description dt:dt=""string"">E-Prime Primary Realtime Clock</Description><StartTime><Timestamp dt:dt=""int"">0</Timestamp><DateUtc dt:dt=""string"">2013-09-14T08:47:42Z</DateUtc></StartTime><FrequencyChanges><FrequencyChange><Frequency dt:dt=""r8"">3312832</Frequency><Timestamp dt:dt=""r8"">607714425654</Timestamp><Current dt:dt=""r8"">0</Current><DateUtc dt:dt=""string"">2013-09-14T08:47:42Z</DateUtc></FrequencyChange></FrequencyChanges></Clock>\n";EXP2.2_290421-10023-1;59.951;1.0.0.369;1;Chronos;2124611688;Full;3.0.3.80;3.0.3.80;09-14-2013;14/09/2013 08:47;10:47:43;3.0.3.82;1;Chronos;Chronos;1;1;1;Training;Generalbloc;;;Chronos;pretest;;1;;;;;;;TRAININGVV;SpatialTaskTraining;1;1;1;Chronos;;;;;;;;;;;;;;;;;;;;;;;;;;;;;;3;1;1;3;5;blocVVstimTraining;LISTVVRANDOM1;VV_110521/895.png;VV_110521/900.png;0;;Chronos;-999999;1;137935;0;1;6998;144933
EXP2.2_290421;10023;1;Chronos;<ChronosDeviceInfo><FriendlyName>MyChronos</FriendlyName><DeviceIndex>1</DeviceIndex><SerialNumber>CHR-04301-1186</SerialNumber><EBNVersion>3.0.3.80</EBNVersion><FirmwareVersion>1.33</FirmwareVersion><APIVersion>1.33</APIVersion><USBHostControllerVersion>2.0</USBHostControllerVersion><USBConnectionRoute>USB#ROOT_HUB20#4&f63975&0#{f18a0e88-c30c-11d0-8815-00a0c906bed8} + USB#VID_8087&PID_0024#5&365d106a&0&1#{f18a0e88-c30c-11d0-8815-00a0c906bed8}(1) + VID_2266&PID_0007(2)</USBConnectionRoute></ChronosDeviceInfo>;"<?xml version=""1.0""?>\n<Clock xmlns:dt=""urn:schemas-microsoft-com:datatypes""><Description dt:dt=""string"">E-Prime Primary Realtime Clock</Description><StartTime><Timestamp dt:dt=""int"">0</Timestamp><DateUtc dt:dt=""string"">2013-09-14T08:47:42Z</DateUtc></StartTime><FrequencyChanges><FrequencyChange><Frequency dt:dt=""r8"">3312832</Frequency><Timestamp dt:dt=""r8"">607714425654</Timestamp><Current dt:dt=""r8"">0</Current><DateUtc dt:dt=""string"">2013-09-14T08:47:42Z</DateUtc></FrequencyChange></FrequencyChanges></Clock>\n";EXP2.2_290421-10023-1;59.951;1.0.0.369;1;Chronos;2124611688;Full;3.0.3.80;3.0.3.80;09-14-2013;14/09/2013 08:47;10:47:43;3.0.3.82;1;Chronos;Chronos;1;1;1;Training;Generalbloc;;;Chronos;pretest;;1;;;;;;;TRAININGVV;SpatialTaskTraining;1;1;1;Chronos;;;;;;;;;;;;;;;;;;;;;;;;;;;;;;4;1;1;4;7;blocVVstimTraining;LISTVVRANDOM1;VV_110521/905.png;VV_110521/910.png;0;;Chronos;-999999;0;146959;0;5;475;147434
EXP2.2_290421;10023;1;Chronos;<ChronosDeviceInfo><FriendlyName>MyChronos</FriendlyName><DeviceIndex>1</DeviceIndex><SerialNumber>CHR-04301-1186</SerialNumber><EBNVersion>3.0.3.80</EBNVersion><FirmwareVersion>1.33</FirmwareVersion><APIVersion>1.33</APIVersion><USBHostControllerVersion>2.0</USBHostControllerVersion><USBConnectionRoute>USB#ROOT_HUB20#4&f63975&0#{f18a0e88-c30c-11d0-8815-00a0c906bed8} + USB#VID_8087&PID_0024#5&365d106a&0&1#{f18a0e88-c30c-11d0-8815-00a0c906bed8}(1) + VID_2266&PID_0007(2)</USBConnectionRoute></ChronosDeviceInfo>;"<?xml version=""1.0""?>\n<Clock xmlns:dt=""urn:schemas-microsoft-com:datatypes""><Description dt:dt=""string"">E-Prime Primary Realtime Clock</Description><StartTime><Timestamp dt:dt=""int"">0</Timestamp><DateUtc dt:dt=""string"">2013-09-14T08:47:42Z</DateUtc></StartTime><FrequencyChanges><FrequencyChange><Frequency dt:dt=""r8"">3312832</Frequency><Timestamp dt:dt=""r8"">607714425654</Timestamp><Current dt:dt=""r8"">0</Current><DateUtc dt:dt=""string"">2013-09-14T08:47:42Z</DateUtc></FrequencyChange></FrequencyChanges></Clock>\n";EXP2.2_290421-10023-1;59.951;1.0.0.369;1;Chronos;2124611688;Full;3.0.3.80;3.0.3.80;09-14-2013;14/09/2013 08:47;10:47:43;3.0.3.82;1;Chronos;Chronos;1;1;1;Training;Generalbloc;;;Chronos;pretest;;1;;;;;;;TRAININGVV;SpatialTaskTraining;1;1;1;Chronos;;;;;;;;;;;;;;;;;;;;;;;;;;;;;;5;1;1;5;9;blocVVstimTraining;LISTVVRANDOM1;VV_110521/915.png;VV_110521/920.png;0;;Chronos;-999999;0;149461;0;5;333;149794
EXP2.2_290421;10023;1;Chronos;<ChronosDeviceInfo><FriendlyName>MyChronos</FriendlyName><DeviceIndex>1</DeviceIndex><SerialNumber>CHR-04301-1186</SerialNumber><EBNVersion>3.0.3.80</EBNVersion><FirmwareVersion>1.33</FirmwareVersion><APIVersion>1.33</APIVersion><USBHostControllerVersion>2.0</USBHostControllerVersion><USBConnectionRoute>USB#ROOT_HUB20#4&f63975&0#{f18a0e88-c30c-11d0-8815-00a0c906bed8} + USB#VID_8087&PID_0024#5&365d106a&0&1#{f18a0e88-c30c-11d0-8815-00a0c906bed8}(1) + VID_2266&PID_0007(2)</USBConnectionRoute></ChronosDeviceInfo>;"<?xml version=""1.0""?>\n<Clock xmlns:dt=""urn:schemas-microsoft-com:datatypes""><Description dt:dt=""string"">E-Prime Primary Realtime Clock</Description><StartTime><Timestamp dt:dt=""int"">0</Timestamp><DateUtc dt:dt=""string"">2013-09-14T08:47:42Z</DateUtc></StartTime><FrequencyChanges><FrequencyChange><Frequency dt:dt=""r8"">3312832</Frequency><Timestamp dt:dt=""r8"">607714425654</Timestamp><Current dt:dt=""r8"">0</Current><DateUtc dt:dt=""string"">2013-09-14T08:47:42Z</DateUtc></FrequencyChange></FrequencyChanges></Clock>\n";EXP2.2_290421-10023-1;59.951;1.0.0.369;1;Chronos;2124611688;Full;3.0.3.80;3.0.3.80;09-14-2013;14/09/2013 08:47;10:47:43;3.0.3.82;1;Chronos;Chronos;1;1;1;Training;Generalbloc;;;Chronos;pretest;;1;;;;;;;TRAININGVV;SpatialTaskTraining;1;1;1;Chronos;;;;;;;;;;;;;;;;;;;;;;;;;;;;;;6;1;1;6;11;blocVVstimTraining;LISTVVRANDOM1;VV_110521/925.png;VV_110521/875.png;0;;Chronos;-999999;1;151830;0;1;231;152061
EXP2.2_290421;10023;1;Chronos;<ChronosDeviceInfo><FriendlyName>MyChronos</FriendlyName><DeviceIndex>1</DeviceIndex><SerialNumber>CHR-04301-1186</SerialNumber><EBNVersion>3.0.3.80</EBNVersion><FirmwareVersion>1.33</FirmwareVersion><APIVersion>1.33</APIVersion><USBHostControllerVersion>2.0</USBHostControllerVersion><USBConnectionRoute>USB#ROOT_HUB20#4&f63975&0#{f18a0e88-c30c-11d0-8815-00a0c906bed8} + USB#VID_8087&PID_0024#5&365d106a&0&1#{f18a0e88-c30c-11d0-8815-00a0c906bed8}(1) + VID_2266&PID_0007(2)</USBConnectionRoute></ChronosDeviceInfo>;"<?xml version=""1.0""?>\n<Clock xmlns:dt=""urn:schemas-microsoft-com:datatypes""><Description dt:dt=""string"">E-Prime Primary Realtime Clock</Description><StartTime><Timestamp dt:dt=""int"">0</Timestamp><DateUtc dt:dt=""string"">2013-09-14T08:47:42Z</DateUtc></StartTime><FrequencyChanges><FrequencyChange><Frequency dt:dt=""r8"">3312832</Frequency><Timestamp dt:dt=""r8"">607714425654</Timestamp><Current dt:dt=""r8"">0</Current><DateUtc dt:dt=""string"">2013-09-14T08:47:42Z</DateUtc></FrequencyChange></FrequencyChanges></Clock>\n";EXP2.2_290421-10023-1;59.951;1.0.0.369;1;Chronos;2124611688;Full;3.0.3.80;3.0.3.80;09-14-2013;14/09/2013 08:47;10:47:43;3.0.3.82;1;Chronos;Chronos;1;1;1;Training;Generalbloc;;;Chronos;pretest;;1;;;;;;;TRAININGVV;SpatialTaskTraining;1;1;1;Chronos;;;;;;;;;;;;;;;;;;;;;;;;;;;;;;7;1;1;7;2;blocVVstimTraining;LISTVVRANDOM1;VV_110521/880.png;VV_110521/885.png;0;;Chronos;-999999;0;154098;0;1;4059;158157
EXP2.2_290421;10023;1;Chronos;<ChronosDeviceInfo><FriendlyName>MyChronos</FriendlyName><DeviceIndex>1</DeviceIndex><SerialNumber>CHR-04301-1186</SerialNumber><EBNVersion>3.0.3.80</EBNVersion><FirmwareVersion>1.33</FirmwareVersion><APIVersion>1.33</APIVersion><USBHostControllerVersion>2.0</USBHostControllerVersion><USBConnectionRoute>USB#ROOT_HUB20#4&f63975&0#{f18a0e88-c30c-11d0-8815-00a0c906bed8} + USB#VID_8087&PID_0024#5&365d106a&0&1#{f18a0e88-c30c-11d0-8815-00a0c906bed8}(1) + VID_2266&PID_0007(2)</USBConnectionRoute></ChronosDeviceInfo>;"<?xml version=""1.0""?>\n<Clock xmlns:dt=""urn:schemas-microsoft-com:datatypes""><Description dt:dt=""string"">E-Prime Primary Realtime Clock</Description><StartTime><Timestamp dt:dt=""int"">0</Timestamp><DateUtc dt:dt=""string"">2013-09-14T08:47:42Z</DateUtc></StartTime><FrequencyChanges><FrequencyChange><Frequency dt:dt=""r8"">3312832</Frequency><Timestamp dt:dt=""r8"">607714425654</Timestamp><Current dt:dt=""r8"">0</Current><DateUtc dt:dt=""string"">2013-09-14T08:47:42Z</DateUtc></FrequencyChange></FrequencyChanges></Clock>\n";EXP2.2_290421-10023-1;59.951;1.0.0.369;1;Chronos;2124611688;Full;3.0.3.80;3.0.3.80;09-14-2013;14/09/2013 08:47;10:47:43;3.0.3.82;1;Chronos;Chronos;1;1;1;Training;Generalbloc;;;Chronos;pretest;;1;;;;;;;TRAININGVV;SpatialTaskTraining;1;1;1;Chronos;;;;;;;;;;;;;;;;;;;;;;;;;;;;;;8;1;1;8;4;blocVVstimTraining;LISTVVRANDOM1;VV_110521/890.png;VV_110521/895.png;0;;Chronos;-999999;1;160187;0;1;1082;161269
EXP2.2_290421;10023;1;Chronos;<ChronosDeviceInfo><FriendlyName>MyChronos</FriendlyName><DeviceIndex>1</DeviceIndex><SerialNumber>CHR-04301-1186</SerialNumber><EBNVersion>3.0.3.80</EBNVersion><FirmwareVersion>1.33</FirmwareVersion><APIVersion>1.33</APIVersion><USBHostControllerVersion>2.0</USBHostControllerVersion><USBConnectionRoute>USB#ROOT_HUB20#4&f63975&0#{f18a0e88-c30c-11d0-8815-00a0c906bed8} + USB#VID_8087&PID_0024#5&365d106a&0&1#{f18a0e88-c30c-11d0-8815-00a0c906bed8}(1) + VID_2266&PID_0007(2)</USBConnectionRoute></ChronosDeviceInfo>;"<?xml version=""1.0""?>\n<Clock xmlns:dt=""urn:schemas-microsoft-com:datatypes""><Description dt:dt=""string"">E-Prime Primary Realtime Clock</Description><StartTime><Timestamp dt:dt=""int"">0</Timestamp><DateUtc dt:dt=""string"">2013-09-14T08:47:42Z</DateUtc></StartTime><FrequencyChanges><FrequencyChange><Frequency dt:dt=""r8"">3312832</Frequency><Timestamp dt:dt=""r8"">607714425654</Timestamp><Current dt:dt=""r8"">0</Current><DateUtc dt:dt=""string"">2013-09-14T08:47:42Z</DateUtc></FrequencyChange></FrequencyChanges></Clock>\n";EXP2.2_290421-10023-1;59.951;1.0.0.369;1;Chronos;2124611688;Full;3.0.3.80;3.0.3.80;09-14-2013;14/09/2013 08:47;10:47:43;3.0.3.82;1;Chronos;Chronos;1;1;1;Training;Generalbloc;;;Chronos;pretest;;1;;;;;;;TRAININGVV;SpatialTaskTraining;1;1;1;Chronos;;;;;;;;;;;;;;;;;;;;;;;;;;;;;;9;1;1;9;6;blocVVstimTraining;LISTVVRANDOM1;VV_110521/900.png;VV_110521/905.png;0;;Chronos;-999999;1;163306;0;1;717;164023
EXP2.2_290421;10023;1;Chronos;<ChronosDeviceInfo><FriendlyName>MyChronos</FriendlyName><DeviceIndex>1</DeviceIndex><SerialNumber>CHR-04301-1186</SerialNumber><EBNVersion>3.0.3.80</EBNVersion><FirmwareVersion>1.33</FirmwareVersion><APIVersion>1.33</APIVersion><USBHostControllerVersion>2.0</USBHostControllerVersion><USBConnectionRoute>USB#ROOT_HUB20#4&f63975&0#{f18a0e88-c30c-11d0-8815-00a0c906bed8} + USB#VID_8087&PID_0024#5&365d106a&0&1#{f18a0e88-c30c-11d0-8815-00a0c906bed8}(1) + VID_2266&PID_0007(2)</USBConnectionRoute></ChronosDeviceInfo>;"<?xml version=""1.0""?>\n<Clock xmlns:dt=""urn:schemas-microsoft-com:datatypes""><Description dt:dt=""string"">E-Prime Primary Realtime Clock</Description><StartTime><Timestamp dt:dt=""int"">0</Timestamp><DateUtc dt:dt=""string"">2013-09-14T08:47:42Z</DateUtc></StartTime><FrequencyChanges><FrequencyChange><Frequency dt:dt=""r8"">3312832</Frequency><Timestamp dt:dt=""r8"">607714425654</Timestamp><Current dt:dt=""r8"">0</Current><DateUtc dt:dt=""string"">2013-09-14T08:47:42Z</DateUtc></FrequencyChange></FrequencyChanges></Clock>\n";EXP2.2_290421-10023-1;59.951;1.0.0.369;1;Chronos;2124611688;Full;3.0.3.80;3.0.3.80;09-14-2013;14/09/2013 08:47;10:47:43;3.0.3.82;1;Chronos;Chronos;1;1;1;Training;Generalbloc;;;Chronos;pretest;;1;;;;;;;TRAININGVV;SpatialTaskTraining;1;1;1;Chronos;;;;;;;;;;;;;;;;;;;;;;;;;;;;;;10;1;1;10;8;blocVVstimTraining;LISTVVRANDOM1;VV_110521/910.png;VV_110521/915.png;0;;Chronos;-999999;0;166058;0;5;169;166227
EXP2.2_290421;10023;1;Chronos;<ChronosDeviceInfo><FriendlyName>MyChronos</FriendlyName><DeviceIndex>1</DeviceIndex><SerialNumber>CHR-04301-1186</SerialNumber><EBNVersion>3.0.3.80</EBNVersion><FirmwareVersion>1.33</FirmwareVersion><APIVersion>1.33</APIVersion><USBHostControllerVersion>2.0</USBHostControllerVersion><USBConnectionRoute>USB#ROOT_HUB20#4&f63975&0#{f18a0e88-c30c-11d0-8815-00a0c906bed8} + USB#VID_8087&PID_0024#5&365d106a&0&1#{f18a0e88-c30c-11d0-8815-00a0c906bed8}(1) + VID_2266&PID_0007(2)</USBConnectionRoute></ChronosDeviceInfo>;"<?xml version=""1.0""?>\n<Clock xmlns:dt=""urn:schemas-microsoft-com:datatypes""><Description dt:dt=""string"">E-Prime Primary Realtime Clock</Description><StartTime><Timestamp dt:dt=""int"">0</Timestamp><DateUtc dt:dt=""string"">2013-09-14T08:47:42Z</DateUtc></StartTime><FrequencyChanges><FrequencyChange><Frequency dt:dt=""r8"">3312832</Frequency><Timestamp dt:dt=""r8"">607714425654</Timestamp><Current dt:dt=""r8"">0</Current><DateUtc dt:dt=""string"">2013-09-14T08:47:42Z</DateUtc></FrequencyChange></FrequencyChanges></Clock>\n";EXP2.2_290421-10023-1;59.951;1.0.0.369;1;Chronos;2124611688;Full;3.0.3.80;3.0.3.80;09-14-2013;14/09/2013 08:47;10:47:43;3.0.3.82;1;Chronos;Chronos;1;1;1;Training;Generalbloc;;;Chronos;pretest;;1;;;;;;;TRAININGVV;SpatialTaskTraining;1;1;1;Chronos;;;;;;;;;;;;;;;;;;;;;;;;;;;;;;11;1;1;11;10;blocVVstimTraining;LISTVVRANDOM1;VV_110521/920.png;VV_110521/925.png;0;;Chronos;-999999;0;168260;0;5;111;168371
EXP2.2_290421;10023;1;Chronos;<ChronosDeviceInfo><FriendlyName>MyChronos</FriendlyName><DeviceIndex>1</DeviceIndex><SerialNumber>CHR-04301-1186</SerialNumber><EBNVersion>3.0.3.80</EBNVersion><FirmwareVersion>1.33</FirmwareVersion><APIVersion>1.33</APIVersion><USBHostControllerVersion>2.0</USBHostControllerVersion><USBConnectionRoute>USB#ROOT_HUB20#4&f63975&0#{f18a0e88-c30c-11d0-8815-00a0c906bed8} + USB#VID_8087&PID_0024#5&365d106a&0&1#{f18a0e88-c30c-11d0-8815-00a0c906bed8}(1) + VID_2266&PID_0007(2)</USBConnectionRoute></ChronosDeviceInfo>;"<?xml version=""1.0""?>\n<Clock xmlns:dt=""urn:schemas-microsoft-com:datatypes""><Description dt:dt=""string"">E-Prime Primary Realtime Clock</Description><StartTime><Timestamp dt:dt=""int"">0</Timestamp><DateUtc dt:dt=""string"">2013-09-14T08:47:42Z</DateUtc></StartTime><FrequencyChanges><FrequencyChange><Frequency dt:dt=""r8"">3312832</Frequency><Timestamp dt:dt=""r8"">607714425654</Timestamp><Current dt:dt=""r8"">0</Current><DateUtc dt:dt=""string"">2013-09-14T08:47:42Z</DateUtc></FrequencyChange></FrequencyChanges></Clock>\n";EXP2.2_290421-10023-1;59.951;1.0.0.369;1;Chronos;2124611688;Full;3.0.3.80;3.0.3.80;09-14-2013;14/09/2013 08:47;10:47:43;3.0.3.82;1;Chronos;Chronos;1;1;1;Training;Generalbloc;;;Chronos;pretest;;1;;;;;;;TRAININGVV;SpatialTaskTraining;1;1;1;Chronos;;;;;;;;;;;;;;;;;;;;;;;;;;;;;;12;1;1;12;1;blocVVstimTraining;LISTVVRANDOM1;VV_110521/875.png;VV_110521/880.png;0;;Chronos;-999999;0;170395;0;1;99;170494
EXP2.2_290421;10023;1;Chronos;<ChronosDeviceInfo><FriendlyName>MyChronos</FriendlyName><DeviceIndex>1</DeviceIndex><SerialNumber>CHR-04301-1186</SerialNumber><EBNVersion>3.0.3.80</EBNVersion><FirmwareVersion>1.33</FirmwareVersion><APIVersion>1.33</APIVersion><USBHostControllerVersion>2.0</USBHostControllerVersion><USBConnectionRoute>USB#ROOT_HUB20#4&f63975&0#{f18a0e88-c30c-11d0-8815-00a0c906bed8} + USB#VID_8087&PID_0024#5&365d106a&0&1#{f18a0e88-c30c-11d0-8815-00a0c906bed8}(1) + VID_2266&PID_0007(2)</USBConnectionRoute></ChronosDeviceInfo>;"<?xml version=""1.0""?>\n<Clock xmlns:dt=""urn:schemas-microsoft-com:datatypes""><Description dt:dt=""string"">E-Prime Primary Realtime Clock</Description><StartTime><Timestamp dt:dt=""int"">0</Timestamp><DateUtc dt:dt=""string"">2013-09-14T08:47:42Z</DateUtc></StartTime><FrequencyChanges><FrequencyChange><Frequency dt:dt=""r8"">3312832</Frequency><Timestamp dt:dt=""r8"">607714425654</Timestamp><Current dt:dt=""r8"">0</Current><DateUtc dt:dt=""string"">2013-09-14T08:47:42Z</DateUtc></FrequencyChange></FrequencyChanges></Clock>\n";EXP2.2_290421-10023-1;59.951;1.0.0.369;1;Chronos;2124611688;Full;3.0.3.80;3.0.3.80;09-14-2013;14/09/2013 08:47;10:47:43;3.0.3.82;2;Chronos;;2;1;2;TESTVV;Generalbloc;;;;pretest;Chronos;1;5;VV_110521/925.png;11;1;1;25;blocVVstim;listVVTrial;;;;Chronos;0;;0;1;238451;201;;0;0;1;5;Chronos;0;1;238652;300;5;468;239120;1;5;Chronos;0;0;238952;0;5;168;239120;;;;;;;;;;;;;;;;;;;
EXP2.2_290421;10023;1;Chronos;<ChronosDeviceInfo><FriendlyName>MyChronos</FriendlyName><DeviceIndex>1</DeviceIndex><SerialNumber>CHR-04301-1186</SerialNumber><EBNVersion>3.0.3.80</EBNVersion><FirmwareVersion>1.33</FirmwareVersion><APIVersion>1.33</APIVersion><USBHostControllerVersion>2.0</USBHostControllerVersion><USBConnectionRoute>USB#ROOT_HUB20#4&f63975&0#{f18a0e88-c30c-11d0-8815-00a0c906bed8} + USB#VID_8087&PID_0024#5&365d106a&0&1#{f18a0e88-c30c-11d0-8815-00a0c906bed8}(1) + VID_2266&PID_0007(2)</USBConnectionRoute></ChronosDeviceInfo>;"<?xml version=""1.0""?>\n<Clock xmlns:dt=""urn:schemas-microsoft-com:datatypes""><Description dt:dt=""string"">E-Prime Primary Realtime Clock</Description><StartTime><Timestamp dt:dt=""int"">0</Timestamp><DateUtc dt:dt=""string"">2013-09-14T08:47:42Z</DateUtc></StartTime><FrequencyChanges><FrequencyChange><Frequency dt:dt=""r8"">3312832</Frequency><Timestamp dt:dt=""r8"">607714425654</Timestamp><Current dt:dt=""r8"">0</Current><DateUtc dt:dt=""string"">2013-09-14T08:47:42Z</DateUtc></FrequencyChange></FrequencyChanges></Clock>\n";EXP2.2_290421-10023-1;59.951;1.0.0.369;1;Chronos;2124611688;Full;3.0.3.80;3.0.3.80;09-14-2013;14/09/2013 08:47;10:47:43;3.0.3.82;2;Chronos;;2;1;2;TESTVV;Generalbloc;;;;pretest;Chronos;2;5;VV_110521/920.png;10;1;2;20;blocVVstim;listVVTrial;;;;Chronos;0;;0;1;240653;200;;0;0;1;5;Chronos;0;0;240853;301;5;740;241593;1;5;Chronos;0;1;241154;0;5;439;241593;;;;;;;;;;;;;;;;;;;
EXP2.2_290421;10023;1;Chronos;<ChronosDeviceInfo><FriendlyName>MyChronos</FriendlyName><DeviceIndex>1</DeviceIndex><SerialNumber>CHR-04301-1186</SerialNumber><EBNVersion>3.0.3.80</EBNVersion><FirmwareVersion>1.33</FirmwareVersion><APIVersion>1.33</APIVersion><USBHostControllerVersion>2.0</USBHostControllerVersion><USBConnectionRoute>USB#ROOT_HUB20#4&f63975&0#{f18a0e88-c30c-11d0-8815-00a0c906bed8} + USB#VID_8087&PID_0024#5&365d106a&0&1#{f18a0e88-c30c-11d0-8815-00a0c906bed8}(1) + VID_2266&PID_0007(2)</USBConnectionRoute></ChronosDeviceInfo>;"<?xml version=""1.0""?>\n<Clock xmlns:dt=""urn:schemas-microsoft-com:datatypes""><Description dt:dt=""string"">E-Prime Primary Realtime Clock</Description><StartTime><Timestamp dt:dt=""int"">0</Timestamp><DateUtc dt:dt=""string"">2013-09-14T08:47:42Z</DateUtc></StartTime><FrequencyChanges><FrequencyChange><Frequency dt:dt=""r8"">3312832</Frequency><Timestamp dt:dt=""r8"">607714425654</Timestamp><Current dt:dt=""r8"">0</Current><DateUtc dt:dt=""string"">2013-09-14T08:47:42Z</DateUtc></FrequencyChange></FrequencyChanges></Clock>\n";EXP2.2_290421-10023-1;59.951;1.0.0.369;1;Chronos;2124611688;Full;3.0.3.80;3.0.3.80;09-14-2013;14/09/2013 08:47;10:47:43;3.0.3.82;2;Chronos;;2;1;2;TESTVV;Generalbloc;;;;pretest;Chronos;3;1;VV_110521/890.png;4;1;3;-10;blocVVstim;listVVTrial;;;;Chronos;0;;0;1;243122;200;;0;0;1;1;Chronos;0;0;243322;300;1;463;243785;1;1;Chronos;0;0;243622;0;1;163;243785;;;;;;;;;;;;;;;;;;;
EXP2.2_290421;10023;1;Chronos;<ChronosDeviceInfo><FriendlyName>MyChronos</FriendlyName><DeviceIndex>1</DeviceIndex><SerialNumber>CHR-04301-1186</SerialNumber><EBNVersion>3.0.3.80</EBNVersion><FirmwareVersion>1.33</FirmwareVersion><APIVersion>1.33</APIVersion><USBHostControllerVersion>2.0</USBHostControllerVersion><USBConnectionRoute>USB#ROOT_HUB20#4&f63975&0#{f18a0e88-c30c-11d0-8815-00a0c906bed8} + USB#VID_8087&PID_0024#5&365d106a&0&1#{f18a0e88-c30c-11d0-8815-00a0c906bed8}(1) + VID_2266&PID_0007(2)</USBConnectionRoute></ChronosDeviceInfo>;"<?xml version=""1.0""?>\n<Clock xmlns:dt=""urn:schemas-microsoft-com:datatypes""><Description dt:dt=""string"">E-Prime Primary Realtime Clock</Description><StartTime><Timestamp dt:dt=""int"">0</Timestamp><DateUtc dt:dt=""string"">2013-09-14T08:47:42Z</DateUtc></StartTime><FrequencyChanges><FrequencyChange><Frequency dt:dt=""r8"">3312832</Frequency><Timestamp dt:dt=""r8"">607714425654</Timestamp><Current dt:dt=""r8"">0</Current><DateUtc dt:dt=""string"">2013-09-14T08:47:42Z</DateUtc></FrequencyChange></FrequencyChanges></Clock>\n";EXP2.2_290421-10023-1;59.951;1.0.0.369;1;Chronos;2124611688;Full;3.0.3.80;3.0.3.80;09-14-2013;14/09/2013 08:47;10:47:43;3.0.3.82;2;Chronos;;2;1;2;TESTVV;Generalbloc;;;;pretest;Chronos;4;5;VV_110521/905.png;7;1;4;5;blocVVstim;listVVTrial;;;;Chronos;0;;0;1;245307;200;;0;0;0;5;Chronos;0;0;245507;300;1;1478;246985;0;5;Chronos;1;0;245807;0;1;1178;246985;;;;;;;;;;;;;;;;;;;
EXP2.2_290421;10023;1;Chronos;<ChronosDeviceInfo><FriendlyName>MyChronos</FriendlyName><DeviceIndex>1</DeviceIndex><SerialNumber>CHR-04301-1186</SerialNumber><EBNVersion>3.0.3.80</EBNVersion><FirmwareVersion>1.33</FirmwareVersion><APIVersion>1.33</APIVersion><USBHostControllerVersion>2.0</USBHostControllerVersion><USBConnectionRoute>USB#ROOT_HUB20#4&f63975&0#{f18a0e88-c30c-11d0-8815-00a0c906bed8} + USB#VID_8087&PID_0024#5&365d106a&0&1#{f18a0e88-c30c-11d0-8815-00a0c906bed8}(1) + VID_2266&PID_0007(2)</USBConnectionRoute></ChronosDeviceInfo>;"<?xml version=""1.0""?>\n<Clock xmlns:dt=""urn:schemas-microsoft-com:datatypes""><Description dt:dt=""string"">E-Prime Primary Realtime Clock</Description><StartTime><Timestamp dt:dt=""int"">0</Timestamp><DateUtc dt:dt=""string"">2013-09-14T08:47:42Z</DateUtc></StartTime><FrequencyChanges><FrequencyChange><Frequency dt:dt=""r8"">3312832</Frequency><Timestamp dt:dt=""r8"">607714425654</Timestamp><Current dt:dt=""r8"">0</Current><DateUtc dt:dt=""string"">2013-09-14T08:47:42Z</DateUtc></FrequencyChange></FrequencyChanges></Clock>\n";EXP2.2_290421-10023-1;59.951;1.0.0.369;1;Chronos;2124611688;Full;3.0.3.80;3.0.3.80;09-14-2013;14/09/2013 08:47;10:47:43;3.0.3.82;2;Chronos;;2;1;2;TESTVV;Generalbloc;;;;pretest;Chronos;5;5;VV_110521/910.png;8;1;5;10;blocVVstim;listVVTrial;;;;Chronos;0;;0;2;248510;200;;0;0;0;5;Chronos;0;0;248710;300;1;984;249694;0;5;Chronos;0;0;249010;0;1;684;249694;;;;;;;;;;;;;;;;;;;
EXP2.2_290421;10023;1;Chronos;<ChronosDeviceInfo><FriendlyName>MyChronos</FriendlyName><DeviceIndex>1</DeviceIndex><SerialNumber>CHR-04301-1186</SerialNumber><EBNVersion>3.0.3.80</EBNVersion><FirmwareVersion>1.33</FirmwareVersion><APIVersion>1.33</APIVersion><USBHostControllerVersion>2.0</USBHostControllerVersion><USBConnectionRoute>USB#ROOT_HUB20#4&f63975&0#{f18a0e88-c30c-11d0-8815-00a0c906bed8} + USB#VID_8087&PID_0024#5&365d106a&0&1#{f18a0e88-c30c-11d0-8815-00a0c906bed8}(1) + VID_2266&PID_0007(2)</USBConnectionRoute></ChronosDeviceInfo>;"<?xml version=""1.0""?>\n<Clock xmlns:dt=""urn:schemas-microsoft-com:datatypes""><Description dt:dt=""string"">E-Prime Primary Realtime Clock</Description><StartTime><Timestamp dt:dt=""int"">0</Timestamp><DateUtc dt:dt=""string"">2013-09-14T08:47:42Z</DateUtc></StartTime><FrequencyChanges><FrequencyChange><Frequency dt:dt=""r8"">3312832</Frequency><Timestamp dt:dt=""r8"">607714425654</Timestamp><Current dt:dt=""r8"">0</Current><DateUtc dt:dt=""string"">2013-09-14T08:47:42Z</DateUtc></FrequencyChange></FrequencyChanges></Clock>\n";EXP2.2_290421-10023-1;59.951;1.0.0.369;1;Chronos;2124611688;Full;3.0.3.80;3.0.3.80;09-14-2013;14/09/2013 08:47;10:47:43;3.0.3.82;2;Chronos;;2;1;2;TESTVV;Generalbloc;;;;pretest;Chronos;6;15;VV_110521/900.png;6;1;6;0;blocVVstim;listVVTrial;;;;Chronos;0;;0;2;251229;200;;0;0;0;15;Chronos;0;0;251429;300;1;741;252170;0;15;Chronos;0;0;251729;0;1;441;252170;;;;;;;;;;;;;;;;;;;
EXP2.2_290421;10023;1;Chronos;<ChronosDeviceInfo><FriendlyName>MyChronos</FriendlyName><DeviceIndex>1</DeviceIndex><SerialNumber>CHR-04301-1186</SerialNumber><EBNVersion>3.0.3.80</EBNVersion><FirmwareVersion>1.33</FirmwareVersion><APIVersion>1.33</APIVersion><USBHostControllerVersion>2.0</USBHostControllerVersion><USBConnectionRoute>USB#ROOT_HUB20#4&f63975&0#{f18a0e88-c30c-11d0-8815-00a0c906bed8} + USB#VID_8087&PID_0024#5&365d106a&0&1#{f18a0e88-c30c-11d0-8815-00a0c906bed8}(1) + VID_2266&PID_0007(2)</USBConnectionRoute></ChronosDeviceInfo>;"<?xml version=""1.0""?>\n<Clock xmlns:dt=""urn:schemas-microsoft-com:datatypes""><Description dt:dt=""string"">E-Prime Primary Realtime Clock</Description><StartTime><Timestamp dt:dt=""int"">0</Timestamp><DateUtc dt:dt=""string"">2013-09-14T08:47:42Z</DateUtc></StartTime><FrequencyChanges><FrequencyChange><Frequency dt:dt=""r8"">3312832</Frequency><Timestamp dt:dt=""r8"">607714425654</Timestamp><Current dt:dt=""r8"">0</Current><DateUtc dt:dt=""string"">2013-09-14T08:47:42Z</DateUtc></FrequencyChange></FrequencyChanges></Clock>\n";EXP2.2_290421-10023-1;59.951;1.0.0.369;1;Chronos;2124611688;Full;3.0.3.80;3.0.3.80;09-14-2013;14/09/2013 08:47;10:47:43;3.0.3.82;2;Chronos;;2;1;2;TESTVV;Generalbloc;;;;pretest;Chronos;7;1;VV_110521/895.png;5;1;7;-5;blocVVstim;listVVTrial;;;;Chronos;0;;0;1;253697;200;;0;0;1;1;Chronos;1;0;253897;301;1;671;254568;1;1;Chronos;0;1;254198;0;1;370;254568;;;;;;;;;;;;;;;;;;;
EXP2.2_290421;10023;1;Chronos;<ChronosDeviceInfo><FriendlyName>MyChronos</FriendlyName><DeviceIndex>1</DeviceIndex><SerialNumber>CHR-04301-1186</SerialNumber><EBNVersion>3.0.3.80</EBNVersion><FirmwareVersion>1.33</FirmwareVersion><APIVersion>1.33</APIVersion><USBHostControllerVersion>2.0</USBHostControllerVersion><USBConnectionRoute>USB#ROOT_HUB20#4&f63975&0#{f18a0e88-c30c-11d0-8815-00a0c906bed8} + USB#VID_8087&PID_0024#5&365d106a&0&1#{f18a0e88-c30c-11d0-8815-00a0c906bed8}(1) + VID_2266&PID_0007(2)</USBConnectionRoute></ChronosDeviceInfo>;"<?xml version=""1.0""?>\n<Clock xmlns:dt=""urn:schemas-microsoft-com:datatypes""><Description dt:dt=""string"">E-Prime Primary Realtime Clock</Description><StartTime><Timestamp dt:dt=""int"">0</Timestamp><DateUtc dt:dt=""string"">2013-09-14T08:47:42Z</DateUtc></StartTime><FrequencyChanges><FrequencyChange><Frequency dt:dt=""r8"">3312832</Frequency><Timestamp dt:dt=""r8"">607714425654</Timestamp><Current dt:dt=""r8"">0</Current><DateUtc dt:dt=""string"">2013-09-14T08:47:42Z</DateUtc></FrequencyChange></FrequencyChanges></Clock>\n";EXP2.2_290421-10023-1;59.951;1.0.0.369;1;Chronos;2124611688;Full;3.0.3.80;3.0.3.80;09-14-2013;14/09/2013 08:47;10:47:43;3.0.3.82;2;Chronos;;2;1;2;TESTVV;Generalbloc;;;;pretest;Chronos;8;5;VV_110521/905.png;7;1;8;5;blocVVstim;listVVTrial;;;;Chronos;0;;0;1;256099;200;;0;0;0;5;Chronos;1;0;256299;301;1;1177;257476;0;5;Chronos;0;1;256600;0;1;876;257476;;;;;;;;;;;;;;;;;;;
EXP2.2_290421;10023;1;Chronos;<ChronosDeviceInfo><FriendlyName>MyChronos</FriendlyName><DeviceIndex>1</DeviceIndex><SerialNumber>CHR-04301-1186</SerialNumber><EBNVersion>3.0.3.80</EBNVersion><FirmwareVersion>1.33</FirmwareVersion><APIVersion>1.33</APIVersion><USBHostControllerVersion>2.0</USBHostControllerVersion><USBConnectionRoute>USB#ROOT_HUB20#4&f63975&0#{f18a0e88-c30c-11d0-8815-00a0c906bed8} + USB#VID_8087&PID_0024#5&365d106a&0&1#{f18a0e88-c30c-11d0-8815-00a0c906bed8}(1) + VID_2266&PID_0007(2)</USBConnectionRoute></ChronosDeviceInfo>;"<?xml version=""1.0""?>\n<Clock xmlns:dt=""urn:schemas-microsoft-com:datatypes""><Description dt:dt=""string"">E-Prime Primary Realtime Clock</Description><StartTime><Timestamp dt:dt=""int"">0</Timestamp><DateUtc dt:dt=""string"">2013-09-14T08:47:42Z</DateUtc></StartTime><FrequencyChanges><FrequencyChange><Frequency dt:dt=""r8"">3312832</Frequency><Timestamp dt:dt=""r8"">607714425654</Timestamp><Current dt:dt=""r8"">0</Current><DateUtc dt:dt=""string"">2013-09-14T08:47:42Z</DateUtc></FrequencyChange></FrequencyChanges></Clock>\n";EXP2.2_290421-10023-1;59.951;1.0.0.369;1;Chronos;2124611688;Full;3.0.3.80;3.0.3.80;09-14-2013;14/09/2013 08:47;10:47:43;3.0.3.82;2;Chronos;;2;1;2;TESTVV;Generalbloc;;;;pretest;Chronos;9;1;VV_110521/890.png;4;1;9;-10;blocVVstim;listVVTrial;;;;Chronos;0;;0;2;259002;200;;0;0;1;1;Chronos;0;0;259202;300;1;695;259897;1;1;Chronos;0;0;259502;0;1;395;259897;;;;;;;;;;;;;;;;;;;
EXP2.2_290421;10023;1;Chronos;<ChronosDeviceInfo><FriendlyName>MyChronos</FriendlyName><DeviceIndex>1</DeviceIndex><SerialNumber>CHR-04301-1186</SerialNumber><EBNVersion>3.0.3.80</EBNVersion><FirmwareVersion>1.33</FirmwareVersion><APIVersion>1.33</APIVersion><USBHostControllerVersion>2.0</USBHostControllerVersion><USBConnectionRoute>USB#ROOT_HUB20#4&f63975&0#{f18a0e88-c30c-11d0-8815-00a0c906bed8} + USB#VID_8087&PID_0024#5&365d106a&0&1#{f18a0e88-c30c-11d0-8815-00a0c906bed8}(1) + VID_2266&PID_0007(2)</USBConnectionRoute></ChronosDeviceInfo>;"<?xml version=""1.0""?>\n<Clock xmlns:dt=""urn:schemas-microsoft-com:datatypes""><Description dt:dt=""string"">E-Prime Primary Realtime Clock</Description><StartTime><Timestamp dt:dt=""int"">0</Timestamp><DateUtc dt:dt=""string"">2013-09-14T08:47:42Z</DateUtc></StartTime><FrequencyChanges><FrequencyChange><Frequency dt:dt=""r8"">3312832</Frequency><Timestamp dt:dt=""r8"">607714425654</Timestamp><Current dt:dt=""r8"">0</Current><DateUtc dt:dt=""string"">2013-09-14T08:47:42Z</DateUtc></FrequencyChange></FrequencyChanges></Clock>\n";EXP2.2_290421-10023-1;59.951;1.0.0.369;1;Chronos;2124611688;Full;3.0.3.80;3.0.3.80;09-14-2013;14/09/2013 08:47;10:47:43;3.0.3.82;2;Chronos;;2;1;2;TESTVV;Generalbloc;;;;pretest;Chronos;10;5;VV_110521/920.png;10;1;10;20;blocVVstim;listVVTrial;;;;Chronos;0;;0;1;261420;201;;0;0;1;5;Chronos;0;1;261621;300;5;462;262083;1;5;Chronos;0;0;261921;0;5;162;262083;;;;;;;;;;;;;;;;;;;
EXP2.2_290421;10023;1;Chronos;<ChronosDeviceInfo><FriendlyName>MyChronos</FriendlyName><DeviceIndex>1</DeviceIndex><SerialNumber>CHR-04301-1186</SerialNumber><EBNVersion>3.0.3.80</EBNVersion><FirmwareVersion>1.33</FirmwareVersion><APIVersion>1.33</APIVersion><USBHostControllerVersion>2.0</USBHostControllerVersion><USBConnectionRoute>USB#ROOT_HUB20#4&f63975&0#{f18a0e88-c30c-11d0-8815-00a0c906bed8} + USB#VID_8087&PID_0024#5&365d106a&0&1#{f18a0e88-c30c-11d0-8815-00a0c906bed8}(1) + VID_2266&PID_0007(2)</USBConnectionRoute></ChronosDeviceInfo>;"<?xml version=""1.0""?>\n<Clock xmlns:dt=""urn:schemas-microsoft-com:datatypes""><Description dt:dt=""string"">E-Prime Primary Realtime Clock</Description><StartTime><Timestamp dt:dt=""int"">0</Timestamp><DateUtc dt:dt=""string"">2013-09-14T08:47:42Z</DateUtc></StartTime><FrequencyChanges><FrequencyChange><Frequency dt:dt=""r8"">3312832</Frequency><Timestamp dt:dt=""r8"">607714425654</Timestamp><Current dt:dt=""r8"">0</Current><DateUtc dt:dt=""string"">2013-09-14T08:47:42Z</DateUtc></FrequencyChange></FrequencyChanges></Clock>\n";EXP2.2_290421-10023-1;59.951;1.0.0.369;1;Chronos;2124611688;Full;3.0.3.80;3.0.3.80;09-14-2013;14/09/2013 08:47;10:47:43;3.0.3.82;2;Chronos;;2;1;2;TESTVV;Generalbloc;;;;pretest;Chronos;11;1;VV_110521/895.png;5;1;11;-5;blocVVstim;listVVTrial;;;;Chronos;0;;0;2;263606;200;;0;0;1;1;Chronos;0;0;263806;300;1;1507;265313;1;1;Chronos;0;0;264106;0;1;1207;265313;;;;;;;;;;;;;;;;;;;
EXP2.2_290421;10023;1;Chronos;<ChronosDeviceInfo><FriendlyName>MyChronos</FriendlyName><DeviceIndex>1</DeviceIndex><SerialNumber>CHR-04301-1186</SerialNumber><EBNVersion>3.0.3.80</EBNVersion><FirmwareVersion>1.33</FirmwareVersion><APIVersion>1.33</APIVersion><USBHostControllerVersion>2.0</USBHostControllerVersion><USBConnectionRoute>USB#ROOT_HUB20#4&f63975&0#{f18a0e88-c30c-11d0-8815-00a0c906bed8} + USB#VID_8087&PID_0024#5&365d106a&0&1#{f18a0e88-c30c-11d0-8815-00a0c906bed8}(1) + VID_2266&PID_0007(2)</USBConnectionRoute></ChronosDeviceInfo>;"<?xml version=""1.0""?>\n<Clock xmlns:dt=""urn:schemas-microsoft-com:datatypes""><Description dt:dt=""string"">E-Prime Primary Realtime Clock</Description><StartTime><Timestamp dt:dt=""int"">0</Timestamp><DateUtc dt:dt=""string"">2013-09-14T08:47:42Z</DateUtc></StartTime><FrequencyChanges><FrequencyChange><Frequency dt:dt=""r8"">3312832</Frequency><Timestamp dt:dt=""r8"">607714425654</Timestamp><Current dt:dt=""r8"">0</Current><DateUtc dt:dt=""string"">2013-09-14T08:47:42Z</DateUtc></FrequencyChange></FrequencyChanges></Clock>\n";EXP2.2_290421-10023-1;59.951;1.0.0.369;1;Chronos;2124611688;Full;3.0.3.80;3.0.3.80;09-14-2013;14/09/2013 08:47;10:47:43;3.0.3.82;2;Chronos;;2;1;2;TESTVV;Generalbloc;;;;pretest;Chronos;12;1;VV_110521/895.png;5;1;12;-5;blocVVstim;listVVTrial;;;;Chronos;0;;0;2;266842;200;;0;0;1;1;Chronos;0;0;267042;300;1;1995;269037;1;1;Chronos;0;0;267342;0;1;1695;269037;;;;;;;;;;;;;;;;;;;
EXP2.2_290421;10023;1;Chronos;<ChronosDeviceInfo><FriendlyName>MyChronos</FriendlyName><DeviceIndex>1</DeviceIndex><SerialNumber>CHR-04301-1186</SerialNumber><EBNVersion>3.0.3.80</EBNVersion><FirmwareVersion>1.33</FirmwareVersion><APIVersion>1.33</APIVersion><USBHostControllerVersion>2.0</USBHostControllerVersion><USBConnectionRoute>USB#ROOT_HUB20#4&f63975&0#{f18a0e88-c30c-11d0-8815-00a0c906bed8} + USB#VID_8087&PID_0024#5&365d106a&0&1#{f18a0e88-c30c-11d0-8815-00a0c906bed8}(1) + VID_2266&PID_0007(2)</USBConnectionRoute></ChronosDeviceInfo>;"<?xml version=""1.0""?>\n<Clock xmlns:dt=""urn:schemas-microsoft-com:datatypes""><Description dt:dt=""string"">E-Prime Primary Realtime Clock</Description><StartTime><Timestamp dt:dt=""int"">0</Timestamp><DateUtc dt:dt=""string"">2013-09-14T08:47:42Z</DateUtc></StartTime><FrequencyChanges><FrequencyChange><Frequency dt:dt=""r8"">3312832</Frequency><Timestamp dt:dt=""r8"">607714425654</Timestamp><Current dt:dt=""r8"">0</Current><DateUtc dt:dt=""string"">2013-09-14T08:47:42Z</DateUtc></FrequencyChange></FrequencyChanges></Clock>\n";EXP2.2_290421-10023-1;59.951;1.0.0.369;1;Chronos;2124611688;Full;3.0.3.80;3.0.3.80;09-14-2013;14/09/2013 08:47;10:47:43;3.0.3.82;2;Chronos;;2;1;2;TESTVV;Generalbloc;;;;pretest;Chronos;13;5;VV_110521/920.png;10;1;13;20;blocVVstim;listVVTrial;;;;Chronos;0;;0;1;270561;200;;0;0;1;5;Chronos;0;0;270761;301;5;398;271159;1;5;Chronos;0;1;271062;0;5;97;271159;;;;;;;;;;;;;;;;;;;
EXP2.2_290421;10023;1;Chronos;<ChronosDeviceInfo><FriendlyName>MyChronos</FriendlyName><DeviceIndex>1</DeviceIndex><SerialNumber>CHR-04301-1186</SerialNumber><EBNVersion>3.0.3.80</EBNVersion><FirmwareVersion>1.33</FirmwareVersion><APIVersion>1.33</APIVersion><USBHostControllerVersion>2.0</USBHostControllerVersion><USBConnectionRoute>USB#ROOT_HUB20#4&f63975&0#{f18a0e88-c30c-11d0-8815-00a0c906bed8} + USB#VID_8087&PID_0024#5&365d106a&0&1#{f18a0e88-c30c-11d0-8815-00a0c906bed8}(1) + VID_2266&PID_0007(2)</USBConnectionRoute></ChronosDeviceInfo>;"<?xml version=""1.0""?>\n<Clock xmlns:dt=""urn:schemas-microsoft-com:datatypes""><Description dt:dt=""string"">E-Prime Primary Realtime Clock</Description><StartTime><Timestamp dt:dt=""int"">0</Timestamp><DateUtc dt:dt=""string"">2013-09-14T08:47:42Z</DateUtc></StartTime><FrequencyChanges><FrequencyChange><Frequency dt:dt=""r8"">3312832</Frequency><Timestamp dt:dt=""r8"">607714425654</Timestamp><Current dt:dt=""r8"">0</Current><DateUtc dt:dt=""string"">2013-09-14T08:47:42Z</DateUtc></FrequencyChange></FrequencyChanges></Clock>\n";EXP2.2_290421-10023-1;59.951;1.0.0.369;1;Chronos;2124611688;Full;3.0.3.80;3.0.3.80;09-14-2013;14/09/2013 08:47;10:47:43;3.0.3.82;2;Chronos;;2;1;2;TESTVV;Generalbloc;;;;pretest;Chronos;14;1;VV_110521/890.png;4;1;14;-10;blocVVstim;listVVTrial;;;;Chronos;0;;0;2;272680;200;;0;0;1;1;Chronos;0;0;272880;300;1;335;273215;1;1;Chronos;0;0;273180;0;1;35;273215;;;;;;;;;;;;;;;;;;;
EXP2.2_290421;10023;1;Chronos;<ChronosDeviceInfo><FriendlyName>MyChronos</FriendlyName><DeviceIndex>1</DeviceIndex><SerialNumber>CHR-04301-1186</SerialNumber><EBNVersion>3.0.3.80</EBNVersion><FirmwareVersion>1.33</FirmwareVersion><APIVersion>1.33</APIVersion><USBHostControllerVersion>2.0</USBHostControllerVersion><USBConnectionRoute>USB#ROOT_HUB20#4&f63975&0#{f18a0e88-c30c-11d0-8815-00a0c906bed8} + USB#VID_8087&PID_0024#5&365d106a&0&1#{f18a0e88-c30c-11d0-8815-00a0c906bed8}(1) + VID_2266&PID_0007(2)</USBConnectionRoute></ChronosDeviceInfo>;"<?xml version=""1.0""?>\n<Clock xmlns:dt=""urn:schemas-microsoft-com:datatypes""><Description dt:dt=""string"">E-Prime Primary Realtime Clock</Description><StartTime><Timestamp dt:dt=""int"">0</Timestamp><DateUtc dt:dt=""string"">2013-09-14T08:47:42Z</DateUtc></StartTime><FrequencyChanges><FrequencyChange><Frequency dt:dt=""r8"">3312832</Frequency><Timestamp dt:dt=""r8"">607714425654</Timestamp><Current dt:dt=""r8"">0</Current><DateUtc dt:dt=""string"">2013-09-14T08:47:42Z</DateUtc></FrequencyChange></FrequencyChanges></Clock>\n";EXP2.2_290421-10023-1;59.951;1.0.0.369;1;Chronos;2124611688;Full;3.0.3.80;3.0.3.80;09-14-2013;14/09/2013 08:47;10:47:43;3.0.3.82;2;Chronos;;2;1;2;TESTVV;Generalbloc;;;;pretest;Chronos;15;1;VV_110521/880.png;2;1;15;-20;blocVVstim;listVVTrial;;;;Chronos;0;;0;1;274748;200;;0;0;1;1;Chronos;0;0;274948;0;1;223;275171;0;;;-999999;0;0;0;;0;0;;;;;;;;;;;;;;;;;;;
EXP2.2_290421;10023;1;Chronos;<ChronosDeviceInfo><FriendlyName>MyChronos</FriendlyName><DeviceIndex>1</DeviceIndex><SerialNumber>CHR-04301-1186</SerialNumber><EBNVersion>3.0.3.80</EBNVersion><FirmwareVersion>1.33</FirmwareVersion><APIVersion>1.33</APIVersion><USBHostControllerVersion>2.0</USBHostControllerVersion><USBConnectionRoute>USB#ROOT_HUB20#4&f63975&0#{f18a0e88-c30c-11d0-8815-00a0c906bed8} + USB#VID_8087&PID_0024#5&365d106a&0&1#{f18a0e88-c30c-11d0-8815-00a0c906bed8}(1) + VID_2266&PID_0007(2)</USBConnectionRoute></ChronosDeviceInfo>;"<?xml version=""1.0""?>\n<Clock xmlns:dt=""urn:schemas-microsoft-com:datatypes""><Description dt:dt=""string"">E-Prime Primary Realtime Clock</Description><StartTime><Timestamp dt:dt=""int"">0</Timestamp><DateUtc dt:dt=""string"">2013-09-14T08:47:42Z</DateUtc></StartTime><FrequencyChanges><FrequencyChange><Frequency dt:dt=""r8"">3312832</Frequency><Timestamp dt:dt=""r8"">607714425654</Timestamp><Current dt:dt=""r8"">0</Current><DateUtc dt:dt=""string"">2013-09-14T08:47:42Z</DateUtc></FrequencyChange></FrequencyChanges></Clock>\n";EXP2.2_290421-10023-1;59.951;1.0.0.369;1;Chronos;2124611688;Full;3.0.3.80;3.0.3.80;09-14-2013;14/09/2013 08:47;10:47:43;3.0.3.82;2;Chronos;;2;1;2;TESTVV;Generalbloc;;;;pretest;Chronos;16;5;VV_110521/915.png;9;1;16;15;blocVVstim;listVVTrial;;;;Chronos;0;;0;2;276700;200;;0;0;1;5;Chronos;0;0;276900;0;5;274;277174;0;;;-999999;0;0;0;;0;0;;;;;;;;;;;;;;;;;;;
EXP2.2_290421;10023;1;Chronos;<ChronosDeviceInfo><FriendlyName>MyChronos</FriendlyName><DeviceIndex>1</DeviceIndex><SerialNumber>CHR-04301-1186</SerialNumber><EBNVersion>3.0.3.80</EBNVersion><FirmwareVersion>1.33</FirmwareVersion><APIVersion>1.33</APIVersion><USBHostControllerVersion>2.0</USBHostControllerVersion><USBConnectionRoute>USB#ROOT_HUB20#4&f63975&0#{f18a0e88-c30c-11d0-8815-00a0c906bed8} + USB#VID_8087&PID_0024#5&365d106a&0&1#{f18a0e88-c30c-11d0-8815-00a0c906bed8}(1) + VID_2266&PID_0007(2)</USBConnectionRoute></ChronosDeviceInfo>;"<?xml version=""1.0""?>\n<Clock xmlns:dt=""urn:schemas-microsoft-com:datatypes""><Description dt:dt=""string"">E-Prime Primary Realtime Clock</Description><StartTime><Timestamp dt:dt=""int"">0</Timestamp><DateUtc dt:dt=""string"">2013-09-14T08:47:42Z</DateUtc></StartTime><FrequencyChanges><FrequencyChange><Frequency dt:dt=""r8"">3312832</Frequency><Timestamp dt:dt=""r8"">607714425654</Timestamp><Current dt:dt=""r8"">0</Current><DateUtc dt:dt=""string"">2013-09-14T08:47:42Z</DateUtc></FrequencyChange></FrequencyChanges></Clock>\n";EXP2.2_290421-10023-1;59.951;1.0.0.369;1;Chronos;2124611688;Full;3.0.3.80;3.0.3.80;09-14-2013;14/09/2013 08:47;10:47:43;3.0.3.82;2;Chronos;;2;1;2;TESTVV;Generalbloc;;;;pretest;Chronos;17;1;VV_110521/875.png;1;1;17;-25;blocVVstim;listVVTrial;;;;Chronos;0;;0;1;278701;201;;0;0;1;1;Chronos;0;1;278902;0;1;257;279159;0;;;-999999;0;0;0;;0;0;;;;;;;;;;;;;;;;;;;
EXP2.2_290421;10023;1;Chronos;<ChronosDeviceInfo><FriendlyName>MyChronos</FriendlyName><DeviceIndex>1</DeviceIndex><SerialNumber>CHR-04301-1186</SerialNumber><EBNVersion>3.0.3.80</EBNVersion><FirmwareVersion>1.33</FirmwareVersion><APIVersion>1.33</APIVersion><USBHostControllerVersion>2.0</USBHostControllerVersion><USBConnectionRoute>USB#ROOT_HUB20#4&f63975&0#{f18a0e88-c30c-11d0-8815-00a0c906bed8} + USB#VID_8087&PID_0024#5&365d106a&0&1#{f18a0e88-c30c-11d0-8815-00a0c906bed8}(1) + VID_2266&PID_0007(2)</USBConnectionRoute></ChronosDeviceInfo>;"<?xml version=""1.0""?>\n<Clock xmlns:dt=""urn:schemas-microsoft-com:datatypes""><Description dt:dt=""string"">E-Prime Primary Realtime Clock</Description><StartTime><Timestamp dt:dt=""int"">0</Timestamp><DateUtc dt:dt=""string"">2013-09-14T08:47:42Z</DateUtc></StartTime><FrequencyChanges><FrequencyChange><Frequency dt:dt=""r8"">3312832</Frequency><Timestamp dt:dt=""r8"">607714425654</Timestamp><Current dt:dt=""r8"">0</Current><DateUtc dt:dt=""string"">2013-09-14T08:47:42Z</DateUtc></FrequencyChange></FrequencyChanges></Clock>\n";EXP2.2_290421-10023-1;59.951;1.0.0.369;1;Chronos;2124611688;Full;3.0.3.80;3.0.3.80;09-14-2013;14/09/2013 08:47;10:47:43;3.0.3.82;2;Chronos;;2;1;2;TESTVV;Generalbloc;;;;pretest;Chronos;18;5;VV_110521/910.png;8;1;18;10;blocVVstim;listVVTrial;;;;Chronos;0;;0;1;280686;200;;0;0;1;5;Chronos;1;0;280886;301;5;923;281809;1;5;Chronos;0;1;281187;0;5;622;281809;;;;;;;;;;;;;;;;;;;
EXP2.2_290421;10023;1;Chronos;<ChronosDeviceInfo><FriendlyName>MyChronos</FriendlyName><DeviceIndex>1</DeviceIndex><SerialNumber>CHR-04301-1186</SerialNumber><EBNVersion>3.0.3.80</EBNVersion><FirmwareVersion>1.33</FirmwareVersion><APIVersion>1.33</APIVersion><USBHostControllerVersion>2.0</USBHostControllerVersion><USBConnectionRoute>USB#ROOT_HUB20#4&f63975&0#{f18a0e88-c30c-11d0-8815-00a0c906bed8} + USB#VID_8087&PID_0024#5&365d106a&0&1#{f18a0e88-c30c-11d0-8815-00a0c906bed8}(1) + VID_2266&PID_0007(2)</USBConnectionRoute></ChronosDeviceInfo>;"<?xml version=""1.0""?>\n<Clock xmlns:dt=""urn:schemas-microsoft-com:datatypes""><Description dt:dt=""string"">E-Prime Primary Realtime Clock</Description><StartTime><Timestamp dt:dt=""int"">0</Timestamp><DateUtc dt:dt=""string"">2013-09-14T08:47:42Z</DateUtc></StartTime><FrequencyChanges><FrequencyChange><Frequency dt:dt=""r8"">3312832</Frequency><Timestamp dt:dt=""r8"">607714425654</Timestamp><Current dt:dt=""r8"">0</Current><DateUtc dt:dt=""string"">2013-09-14T08:47:42Z</DateUtc></FrequencyChange></FrequencyChanges></Clock>\n";EXP2.2_290421-10023-1;59.951;1.0.0.369;1;Chronos;2124611688;Full;3.0.3.80;3.0.3.80;09-14-2013;14/09/2013 08:47;10:47:43;3.0.3.82;2;Chronos;;2;1;2;TESTVV;Generalbloc;;;;pretest;Chronos;19;5;VV_110521/915.png;9;1;19;15;blocVVstim;listVVTrial;;;;Chronos;0;;0;2;283339;200;;0;0;1;5;Chronos;0;0;283539;300;5;991;284530;1;5;Chronos;0;0;283839;0;5;691;284530;;;;;;;;;;;;;;;;;;;
EXP2.2_290421;10023;1;Chronos;<ChronosDeviceInfo><FriendlyName>MyChronos</FriendlyName><DeviceIndex>1</DeviceIndex><SerialNumber>CHR-04301-1186</SerialNumber><EBNVersion>3.0.3.80</EBNVersion><FirmwareVersion>1.33</FirmwareVersion><APIVersion>1.33</APIVersion><USBHostControllerVersion>2.0</USBHostControllerVersion><USBConnectionRoute>USB#ROOT_HUB20#4&f63975&0#{f18a0e88-c30c-11d0-8815-00a0c906bed8} + USB#VID_8087&PID_0024#5&365d106a&0&1#{f18a0e88-c30c-11d0-8815-00a0c906bed8}(1) + VID_2266&PID_0007(2)</USBConnectionRoute></ChronosDeviceInfo>;"<?xml version=""1.0""?>\n<Clock xmlns:dt=""urn:schemas-microsoft-com:datatypes""><Description dt:dt=""string"">E-Prime Primary Realtime Clock</Description><StartTime><Timestamp dt:dt=""int"">0</Timestamp><DateUtc dt:dt=""string"">2013-09-14T08:47:42Z</DateUtc></StartTime><FrequencyChanges><FrequencyChange><Frequency dt:dt=""r8"">3312832</Frequency><Timestamp dt:dt=""r8"">607714425654</Timestamp><Current dt:dt=""r8"">0</Current><DateUtc dt:dt=""string"">2013-09-14T08:47:42Z</DateUtc></FrequencyChange></FrequencyChanges></Clock>\n";EXP2.2_290421-10023-1;59.951;1.0.0.369;1;Chronos;2124611688;Full;3.0.3.80;3.0.3.80;09-14-2013;14/09/2013 08:47;10:47:43;3.0.3.82;2;Chronos;;2;1;2;TESTVV;Generalbloc;;;;pretest;Chronos;20;1;VV_110521/895.png;5;1;20;-5;blocVVstim;listVVTrial;;;;Chronos;0;;0;1;286057;201;;0;0;1;1;Chronos;0;1;286258;300;1;406;286664;1;1;Chronos;0;0;286558;0;1;106;286664;;;;;;;;;;;;;;;;;;;
EXP2.2_290421;10023;1;Chronos;<ChronosDeviceInfo><FriendlyName>MyChronos</FriendlyName><DeviceIndex>1</DeviceIndex><SerialNumber>CHR-04301-1186</SerialNumber><EBNVersion>3.0.3.80</EBNVersion><FirmwareVersion>1.33</FirmwareVersion><APIVersion>1.33</APIVersion><USBHostControllerVersion>2.0</USBHostControllerVersion><USBConnectionRoute>USB#ROOT_HUB20#4&f63975&0#{f18a0e88-c30c-11d0-8815-00a0c906bed8} + USB#VID_8087&PID_0024#5&365d106a&0&1#{f18a0e88-c30c-11d0-8815-00a0c906bed8}(1) + VID_2266&PID_0007(2)</USBConnectionRoute></ChronosDeviceInfo>;"<?xml version=""1.0""?>\n<Clock xmlns:dt=""urn:schemas-microsoft-com:datatypes""><Description dt:dt=""string"">E-Prime Primary Realtime Clock</Description><StartTime><Timestamp dt:dt=""int"">0</Timestamp><DateUtc dt:dt=""string"">2013-09-14T08:47:42Z</DateUtc></StartTime><FrequencyChanges><FrequencyChange><Frequency dt:dt=""r8"">3312832</Frequency><Timestamp dt:dt=""r8"">607714425654</Timestamp><Current dt:dt=""r8"">0</Current><DateUtc dt:dt=""string"">2013-09-14T08:47:42Z</DateUtc></FrequencyChange></FrequencyChanges></Clock>\n";EXP2.2_290421-10023-1;59.951;1.0.0.369;1;Chronos;2124611688;Full;3.0.3.80;3.0.3.80;09-14-2013;14/09/2013 08:47;10:47:43;3.0.3.82;2;Chronos;;2;1;2;TESTVV;Generalbloc;;;;pretest;Chronos;21;5;VV_110521/925.png;11;1;21;25;blocVVstim;listVVTrial;;;;Chronos;0;;0;2;288193;200;;0;0;1;5;Chronos;0;0;288393;300;5;584;288977;1;5;Chronos;0;0;288693;0;5;284;288977;;;;;;;;;;;;;;;;;;;
EXP2.2_290421;10023;1;Chronos;<ChronosDeviceInfo><FriendlyName>MyChronos</FriendlyName><DeviceIndex>1</DeviceIndex><SerialNumber>CHR-04301-1186</SerialNumber><EBNVersion>3.0.3.80</EBNVersion><FirmwareVersion>1.33</FirmwareVersion><APIVersion>1.33</APIVersion><USBHostControllerVersion>2.0</USBHostControllerVersion><USBConnectionRoute>USB#ROOT_HUB20#4&f63975&0#{f18a0e88-c30c-11d0-8815-00a0c906bed8} + USB#VID_8087&PID_0024#5&365d106a&0&1#{f18a0e88-c30c-11d0-8815-00a0c906bed8}(1) + VID_2266&PID_0007(2)</USBConnectionRoute></ChronosDeviceInfo>;"<?xml version=""1.0""?>\n<Clock xmlns:dt=""urn:schemas-microsoft-com:datatypes""><Description dt:dt=""string"">E-Prime Primary Realtime Clock</Description><StartTime><Timestamp dt:dt=""int"">0</Timestamp><DateUtc dt:dt=""string"">2013-09-14T08:47:42Z</DateUtc></StartTime><FrequencyChanges><FrequencyChange><Frequency dt:dt=""r8"">3312832</Frequency><Timestamp dt:dt=""r8"">607714425654</Timestamp><Current dt:dt=""r8"">0</Current><DateUtc dt:dt=""string"">2013-09-14T08:47:42Z</DateUtc></FrequencyChange></FrequencyChanges></Clock>\n";EXP2.2_290421-10023-1;59.951;1.0.0.369;1;Chronos;2124611688;Full;3.0.3.80;3.0.3.80;09-14-2013;14/09/2013 08:47;10:47:43;3.0.3.82;2;Chronos;;2;1;2;TESTVV;Generalbloc;;;;pretest;Chronos;22;1;VV_110521/875.png;1;1;22;-25;blocVVstim;listVVTrial;;;;Chronos;0;;0;1;290511;200;;0;0;1;1;Chronos;0;0;290711;301;1;530;291241;1;1;Chronos;0;1;291012;0;1;229;291241;;;;;;;;;;;;;;;;;;;
EXP2.2_290421;10023;1;Chronos;<ChronosDeviceInfo><FriendlyName>MyChronos</FriendlyName><DeviceIndex>1</DeviceIndex><SerialNumber>CHR-04301-1186</SerialNumber><EBNVersion>3.0.3.80</EBNVersion><FirmwareVersion>1.33</FirmwareVersion><APIVersion>1.33</APIVersion><USBHostControllerVersion>2.0</USBHostControllerVersion><USBConnectionRoute>USB#ROOT_HUB20#4&f63975&0#{f18a0e88-c30c-11d0-8815-00a0c906bed8} + USB#VID_8087&PID_0024#5&365d106a&0&1#{f18a0e88-c30c-11d0-8815-00a0c906bed8}(1) + VID_2266&PID_0007(2)</USBConnectionRoute></ChronosDeviceInfo>;"<?xml version=""1.0""?>\n<Clock xmlns:dt=""urn:schemas-microsoft-com:datatypes""><Description dt:dt=""string"">E-Prime Primary Realtime Clock</Description><StartTime><Timestamp dt:dt=""int"">0</Timestamp><DateUtc dt:dt=""string"">2013-09-14T08:47:42Z</DateUtc></StartTime><FrequencyChanges><FrequencyChange><Frequency dt:dt=""r8"">3312832</Frequency><Timestamp dt:dt=""r8"">607714425654</Timestamp><Current dt:dt=""r8"">0</Current><DateUtc dt:dt=""string"">2013-09-14T08:47:42Z</DateUtc></FrequencyChange></FrequencyChanges></Clock>\n";EXP2.2_290421-10023-1;59.951;1.0.0.369;1;Chronos;2124611688;Full;3.0.3.80;3.0.3.80;09-14-2013;14/09/2013 08:47;10:47:43;3.0.3.82;2;Chronos;;2;1;2;TESTVV;Generalbloc;;;;pretest;Chronos;23;1;VV_110521/895.png;5;1;23;-5;blocVVstim;listVVTrial;;;;Chronos;0;;0;2;292780;200;;0;0;1;1;Chronos;0;0;292980;300;1;681;293661;1;1;Chronos;0;0;293280;0;1;381;293661;;;;;;;;;;;;;;;;;;;
EXP2.2_290421;10023;1;Chronos;<ChronosDeviceInfo><FriendlyName>MyChronos</FriendlyName><DeviceIndex>1</DeviceIndex><SerialNumber>CHR-04301-1186</SerialNumber><EBNVersion>3.0.3.80</EBNVersion><FirmwareVersion>1.33</FirmwareVersion><APIVersion>1.33</APIVersion><USBHostControllerVersion>2.0</USBHostControllerVersion><USBConnectionRoute>USB#ROOT_HUB20#4&f63975&0#{f18a0e88-c30c-11d0-8815-00a0c906bed8} + USB#VID_8087&PID_0024#5&365d106a&0&1#{f18a0e88-c30c-11d0-8815-00a0c906bed8}(1) + VID_2266&PID_0007(2)</USBConnectionRoute></ChronosDeviceInfo>;"<?xml version=""1.0""?>\n<Clock xmlns:dt=""urn:schemas-microsoft-com:datatypes""><Description dt:dt=""string"">E-Prime Primary Realtime Clock</Description><StartTime><Timestamp dt:dt=""int"">0</Timestamp><DateUtc dt:dt=""string"">2013-09-14T08:47:42Z</DateUtc></StartTime><FrequencyChanges><FrequencyChange><Frequency dt:dt=""r8"">3312832</Frequency><Timestamp dt:dt=""r8"">607714425654</Timestamp><Current dt:dt=""r8"">0</Current><DateUtc dt:dt=""string"">2013-09-14T08:47:42Z</DateUtc></FrequencyChange></FrequencyChanges></Clock>\n";EXP2.2_290421-10023-1;59.951;1.0.0.369;1;Chronos;2124611688;Full;3.0.3.80;3.0.3.80;09-14-2013;14/09/2013 08:47;10:47:43;3.0.3.82;2;Chronos;;2;1;2;TESTVV;Generalbloc;;;;pretest;Chronos;24;5;VV_110521/910.png;8;1;24;10;blocVVstim;listVVTrial;;;;Chronos;0;;0;1;295198;200;;0;0;1;5;Chronos;1;0;295398;301;5;526;295924;1;5;Chronos;0;1;295699;0;5;225;295924;;;;;;;;;;;;;;;;;;;
EXP2.2_290421;10023;1;Chronos;<ChronosDeviceInfo><FriendlyName>MyChronos</FriendlyName><DeviceIndex>1</DeviceIndex><SerialNumber>CHR-04301-1186</SerialNumber><EBNVersion>3.0.3.80</EBNVersion><FirmwareVersion>1.33</FirmwareVersion><APIVersion>1.33</APIVersion><USBHostControllerVersion>2.0</USBHostControllerVersion><USBConnectionRoute>USB#ROOT_HUB20#4&f63975&0#{f18a0e88-c30c-11d0-8815-00a0c906bed8} + USB#VID_8087&PID_0024#5&365d106a&0&1#{f18a0e88-c30c-11d0-8815-00a0c906bed8}(1) + VID_2266&PID_0007(2)</USBConnectionRoute></ChronosDeviceInfo>;"<?xml version=""1.0""?>\n<Clock xmlns:dt=""urn:schemas-microsoft-com:datatypes""><Description dt:dt=""string"">E-Prime Primary Realtime Clock</Description><StartTime><Timestamp dt:dt=""int"">0</Timestamp><DateUtc dt:dt=""string"">2013-09-14T08:47:42Z</DateUtc></StartTime><FrequencyChanges><FrequencyChange><Frequency dt:dt=""r8"">3312832</Frequency><Timestamp dt:dt=""r8"">607714425654</Timestamp><Current dt:dt=""r8"">0</Current><DateUtc dt:dt=""string"">2013-09-14T08:47:42Z</DateUtc></FrequencyChange></FrequencyChanges></Clock>\n";EXP2.2_290421-10023-1;59.951;1.0.0.369;1;Chronos;2124611688;Full;3.0.3.80;3.0.3.80;09-14-2013;14/09/2013 08:47;10:47:43;3.0.3.82;2;Chronos;;2;1;2;TESTVV;Generalbloc;;;;pretest;Chronos;25;1;VV_110521/875.png;1;1;25;-25;blocVVstim;listVVTrial;;;;Chronos;0;;0;1;297450;200;;0;0;1;1;Chronos;0;0;297650;301;1;447;298097;1;1;Chronos;0;1;297951;0;1;146;298097;;;;;;;;;;;;;;;;;;;
EXP2.2_290421;10023;1;Chronos;<ChronosDeviceInfo><FriendlyName>MyChronos</FriendlyName><DeviceIndex>1</DeviceIndex><SerialNumber>CHR-04301-1186</SerialNumber><EBNVersion>3.0.3.80</EBNVersion><FirmwareVersion>1.33</FirmwareVersion><APIVersion>1.33</APIVersion><USBHostControllerVersion>2.0</USBHostControllerVersion><USBConnectionRoute>USB#ROOT_HUB20#4&f63975&0#{f18a0e88-c30c-11d0-8815-00a0c906bed8} + USB#VID_8087&PID_0024#5&365d106a&0&1#{f18a0e88-c30c-11d0-8815-00a0c906bed8}(1) + VID_2266&PID_0007(2)</USBConnectionRoute></ChronosDeviceInfo>;"<?xml version=""1.0""?>\n<Clock xmlns:dt=""urn:schemas-microsoft-com:datatypes""><Description dt:dt=""string"">E-Prime Primary Realtime Clock</Description><StartTime><Timestamp dt:dt=""int"">0</Timestamp><DateUtc dt:dt=""string"">2013-09-14T08:47:42Z</DateUtc></StartTime><FrequencyChanges><FrequencyChange><Frequency dt:dt=""r8"">3312832</Frequency><Timestamp dt:dt=""r8"">607714425654</Timestamp><Current dt:dt=""r8"">0</Current><DateUtc dt:dt=""string"">2013-09-14T08:47:42Z</DateUtc></FrequencyChange></FrequencyChanges></Clock>\n";EXP2.2_290421-10023-1;59.951;1.0.0.369;1;Chronos;2124611688;Full;3.0.3.80;3.0.3.80;09-14-2013;14/09/2013 08:47;10:47:43;3.0.3.82;2;Chronos;;2;1;2;TESTVV;Generalbloc;;;;pretest;Chronos;26;1;VV_110521/880.png;2;1;26;-20;blocVVstim;listVVTrial;;;;Chronos;0;;0;1;299635;201;;0;0;1;1;Chronos;0;1;299836;300;1;647;300483;1;1;Chronos;0;0;300136;0;1;347;300483;;;;;;;;;;;;;;;;;;;
EXP2.2_290421;10023;1;Chronos;<ChronosDeviceInfo><FriendlyName>MyChronos</FriendlyName><DeviceIndex>1</DeviceIndex><SerialNumber>CHR-04301-1186</SerialNumber><EBNVersion>3.0.3.80</EBNVersion><FirmwareVersion>1.33</FirmwareVersion><APIVersion>1.33</APIVersion><USBHostControllerVersion>2.0</USBHostControllerVersion><USBConnectionRoute>USB#ROOT_HUB20#4&f63975&0#{f18a0e88-c30c-11d0-8815-00a0c906bed8} + USB#VID_8087&PID_0024#5&365d106a&0&1#{f18a0e88-c30c-11d0-8815-00a0c906bed8}(1) + VID_2266&PID_0007(2)</USBConnectionRoute></ChronosDeviceInfo>;"<?xml version=""1.0""?>\n<Clock xmlns:dt=""urn:schemas-microsoft-com:datatypes""><Description dt:dt=""string"">E-Prime Primary Realtime Clock</Description><StartTime><Timestamp dt:dt=""int"">0</Timestamp><DateUtc dt:dt=""string"">2013-09-14T08:47:42Z</DateUtc></StartTime><FrequencyChanges><FrequencyChange><Frequency dt:dt=""r8"">3312832</Frequency><Timestamp dt:dt=""r8"">607714425654</Timestamp><Current dt:dt=""r8"">0</Current><DateUtc dt:dt=""string"">2013-09-14T08:47:42Z</DateUtc></FrequencyChange></FrequencyChanges></Clock>\n";EXP2.2_290421-10023-1;59.951;1.0.0.369;1;Chronos;2124611688;Full;3.0.3.80;3.0.3.80;09-14-2013;14/09/2013 08:47;10:47:43;3.0.3.82;2;Chronos;;2;1;2;TESTVV;Generalbloc;;;;pretest;Chronos;27;5;VV_110521/905.png;7;1;27;5;blocVVstim;listVVTrial;;;;Chronos;0;;0;2;302021;200;;0;0;1;5;Chronos;0;0;302221;300;5;634;302855;1;5;Chronos;0;0;302521;0;5;334;302855;;;;;;;;;;;;;;;;;;;
EXP2.2_290421;10023;1;Chronos;<ChronosDeviceInfo><FriendlyName>MyChronos</FriendlyName><DeviceIndex>1</DeviceIndex><SerialNumber>CHR-04301-1186</SerialNumber><EBNVersion>3.0.3.80</EBNVersion><FirmwareVersion>1.33</FirmwareVersion><APIVersion>1.33</APIVersion><USBHostControllerVersion>2.0</USBHostControllerVersion><USBConnectionRoute>USB#ROOT_HUB20#4&f63975&0#{f18a0e88-c30c-11d0-8815-00a0c906bed8} + USB#VID_8087&PID_0024#5&365d106a&0&1#{f18a0e88-c30c-11d0-8815-00a0c906bed8}(1) + VID_2266&PID_0007(2)</USBConnectionRoute></ChronosDeviceInfo>;"<?xml version=""1.0""?>\n<Clock xmlns:dt=""urn:schemas-microsoft-com:datatypes""><Description dt:dt=""string"">E-Prime Primary Realtime Clock</Description><StartTime><Timestamp dt:dt=""int"">0</Timestamp><DateUtc dt:dt=""string"">2013-09-14T08:47:42Z</DateUtc></StartTime><FrequencyChanges><FrequencyChange><Frequency dt:dt=""r8"">3312832</Frequency><Timestamp dt:dt=""r8"">607714425654</Timestamp><Current dt:dt=""r8"">0</Current><DateUtc dt:dt=""string"">2013-09-14T08:47:42Z</DateUtc></FrequencyChange></FrequencyChanges></Clock>\n";EXP2.2_290421-10023-1;59.951;1.0.0.369;1;Chronos;2124611688;Full;3.0.3.80;3.0.3.80;09-14-2013;14/09/2013 08:47;10:47:43;3.0.3.82;2;Chronos;;2;1;2;TESTVV;Generalbloc;;;;pretest;Chronos;28;5;VV_110521/915.png;9;1;28;15;blocVVstim;listVVTrial;;;;Chronos;0;;0;1;304389;200;;0;0;1;5;Chronos;1;0;304589;0;5;287;304876;0;;;-999999;0;0;0;;0;0;;;;;;;;;;;;;;;;;;;
EXP2.2_290421;10023;1;Chronos;<ChronosDeviceInfo><FriendlyName>MyChronos</FriendlyName><DeviceIndex>1</DeviceIndex><SerialNumber>CHR-04301-1186</SerialNumber><EBNVersion>3.0.3.80</EBNVersion><FirmwareVersion>1.33</FirmwareVersion><APIVersion>1.33</APIVersion><USBHostControllerVersion>2.0</USBHostControllerVersion><USBConnectionRoute>USB#ROOT_HUB20#4&f63975&0#{f18a0e88-c30c-11d0-8815-00a0c906bed8} + USB#VID_8087&PID_0024#5&365d106a&0&1#{f18a0e88-c30c-11d0-8815-00a0c906bed8}(1) + VID_2266&PID_0007(2)</USBConnectionRoute></ChronosDeviceInfo>;"<?xml version=""1.0""?>\n<Clock xmlns:dt=""urn:schemas-microsoft-com:datatypes""><Description dt:dt=""string"">E-Prime Primary Realtime Clock</Description><StartTime><Timestamp dt:dt=""int"">0</Timestamp><DateUtc dt:dt=""string"">2013-09-14T08:47:42Z</DateUtc></StartTime><FrequencyChanges><FrequencyChange><Frequency dt:dt=""r8"">3312832</Frequency><Timestamp dt:dt=""r8"">607714425654</Timestamp><Current dt:dt=""r8"">0</Current><DateUtc dt:dt=""string"">2013-09-14T08:47:42Z</DateUtc></FrequencyChange></FrequencyChanges></Clock>\n";EXP2.2_290421-10023-1;59.951;1.0.0.369;1;Chronos;2124611688;Full;3.0.3.80;3.0.3.80;09-14-2013;14/09/2013 08:47;10:47:43;3.0.3.82;2;Chronos;;2;1;2;TESTVV;Generalbloc;;;;pretest;Chronos;29;5;VV_110521/925.png;11;1;29;25;blocVVstim;listVVTrial;;;;Chronos;0;;0;2;306408;200;;0;0;1;5;Chronos;0;0;306608;300;5;371;306979;1;5;Chronos;0;0;306908;0;5;71;306979;;;;;;;;;;;;;;;;;;;
EXP2.2_290421;10023;1;Chronos;<ChronosDeviceInfo><FriendlyName>MyChronos</FriendlyName><DeviceIndex>1</DeviceIndex><SerialNumber>CHR-04301-1186</SerialNumber><EBNVersion>3.0.3.80</EBNVersion><FirmwareVersion>1.33</FirmwareVersion><APIVersion>1.33</APIVersion><USBHostControllerVersion>2.0</USBHostControllerVersion><USBConnectionRoute>USB#ROOT_HUB20#4&f63975&0#{f18a0e88-c30c-11d0-8815-00a0c906bed8} + USB#VID_8087&PID_0024#5&365d106a&0&1#{f18a0e88-c30c-11d0-8815-00a0c906bed8}(1) + VID_2266&PID_0007(2)</USBConnectionRoute></ChronosDeviceInfo>;"<?xml version=""1.0""?>\n<Clock xmlns:dt=""urn:schemas-microsoft-com:datatypes""><Description dt:dt=""string"">E-Prime Primary Realtime Clock</Description><StartTime><Timestamp dt:dt=""int"">0</Timestamp><DateUtc dt:dt=""string"">2013-09-14T08:47:42Z</DateUtc></StartTime><FrequencyChanges><FrequencyChange><Frequency dt:dt=""r8"">3312832</Frequency><Timestamp dt:dt=""r8"">607714425654</Timestamp><Current dt:dt=""r8"">0</Current><DateUtc dt:dt=""string"">2013-09-14T08:47:42Z</DateUtc></FrequencyChange></FrequencyChanges></Clock>\n";EXP2.2_290421-10023-1;59.951;1.0.0.369;1;Chronos;2124611688;Full;3.0.3.80;3.0.3.80;09-14-2013;14/09/2013 08:47;10:47:43;3.0.3.82;2;Chronos;;2;1;2;TESTVV;Generalbloc;;;;pretest;Chronos;30;1;VV_110521/890.png;4;1;30;-10;blocVVstim;listVVTrial;;;;Chronos;0;;0;1;308509;201;;0;0;1;1;Chronos;0;1;308710;0;1;269;308979;0;;;-999999;0;0;0;;0;0;;;;;;;;;;;;;;;;;;;
EXP2.2_290421;10023;1;Chronos;<ChronosDeviceInfo><FriendlyName>MyChronos</FriendlyName><DeviceIndex>1</DeviceIndex><SerialNumber>CHR-04301-1186</SerialNumber><EBNVersion>3.0.3.80</EBNVersion><FirmwareVersion>1.33</FirmwareVersion><APIVersion>1.33</APIVersion><USBHostControllerVersion>2.0</USBHostControllerVersion><USBConnectionRoute>USB#ROOT_HUB20#4&f63975&0#{f18a0e88-c30c-11d0-8815-00a0c906bed8} + USB#VID_8087&PID_0024#5&365d106a&0&1#{f18a0e88-c30c-11d0-8815-00a0c906bed8}(1) + VID_2266&PID_0007(2)</USBConnectionRoute></ChronosDeviceInfo>;"<?xml version=""1.0""?>\n<Clock xmlns:dt=""urn:schemas-microsoft-com:datatypes""><Description dt:dt=""string"">E-Prime Primary Realtime Clock</Description><StartTime><Timestamp dt:dt=""int"">0</Timestamp><DateUtc dt:dt=""string"">2013-09-14T08:47:42Z</DateUtc></StartTime><FrequencyChanges><FrequencyChange><Frequency dt:dt=""r8"">3312832</Frequency><Timestamp dt:dt=""r8"">607714425654</Timestamp><Current dt:dt=""r8"">0</Current><DateUtc dt:dt=""string"">2013-09-14T08:47:42Z</DateUtc></FrequencyChange></FrequencyChanges></Clock>\n";EXP2.2_290421-10023-1;59.951;1.0.0.369;1;Chronos;2124611688;Full;3.0.3.80;3.0.3.80;09-14-2013;14/09/2013 08:47;10:47:43;3.0.3.82;2;Chronos;;2;1;2;TESTVV;Generalbloc;;;;pretest;Chronos;31;1;VV_110521/885.png;3;1;31;-15;blocVVstim;listVVTrial;;;;Chronos;0;;0;1;310511;200;;0;0;1;1;Chronos;0;0;310711;0;1;225;310936;0;;;-999999;0;0;0;;0;0;;;;;;;;;;;;;;;;;;;
EXP2.2_290421;10023;1;Chronos;<ChronosDeviceInfo><FriendlyName>MyChronos</FriendlyName><DeviceIndex>1</DeviceIndex><SerialNumber>CHR-04301-1186</SerialNumber><EBNVersion>3.0.3.80</EBNVersion><FirmwareVersion>1.33</FirmwareVersion><APIVersion>1.33</APIVersion><USBHostControllerVersion>2.0</USBHostControllerVersion><USBConnectionRoute>USB#ROOT_HUB20#4&f63975&0#{f18a0e88-c30c-11d0-8815-00a0c906bed8} + USB#VID_8087&PID_0024#5&365d106a&0&1#{f18a0e88-c30c-11d0-8815-00a0c906bed8}(1) + VID_2266&PID_0007(2)</USBConnectionRoute></ChronosDeviceInfo>;"<?xml version=""1.0""?>\n<Clock xmlns:dt=""urn:schemas-microsoft-com:datatypes""><Description dt:dt=""string"">E-Prime Primary Realtime Clock</Description><StartTime><Timestamp dt:dt=""int"">0</Timestamp><DateUtc dt:dt=""string"">2013-09-14T08:47:42Z</DateUtc></StartTime><FrequencyChanges><FrequencyChange><Frequency dt:dt=""r8"">3312832</Frequency><Timestamp dt:dt=""r8"">607714425654</Timestamp><Current dt:dt=""r8"">0</Current><DateUtc dt:dt=""string"">2013-09-14T08:47:42Z</DateUtc></FrequencyChange></FrequencyChanges></Clock>\n";EXP2.2_290421-10023-1;59.951;1.0.0.369;1;Chronos;2124611688;Full;3.0.3.80;3.0.3.80;09-14-2013;14/09/2013 08:47;10:47:43;3.0.3.82;2;Chronos;;2;1;2;TESTVV;Generalbloc;;;;pretest;Chronos;32;1;VV_110521/885.png;3;1;32;-15;blocVVstim;listVVTrial;;;;Chronos;0;;0;2;312463;200;;0;0;1;1;Chronos;0;0;312663;300;1;607;313270;1;1;Chronos;0;0;312963;0;1;307;313270;;;;;;;;;;;;;;;;;;;
EXP2.2_290421;10023;1;Chronos;<ChronosDeviceInfo><FriendlyName>MyChronos</FriendlyName><DeviceIndex>1</DeviceIndex><SerialNumber>CHR-04301-1186</SerialNumber><EBNVersion>3.0.3.80</EBNVersion><FirmwareVersion>1.33</FirmwareVersion><APIVersion>1.33</APIVersion><USBHostControllerVersion>2.0</USBHostControllerVersion><USBConnectionRoute>USB#ROOT_HUB20#4&f63975&0#{f18a0e88-c30c-11d0-8815-00a0c906bed8} + USB#VID_8087&PID_0024#5&365d106a&0&1#{f18a0e88-c30c-11d0-8815-00a0c906bed8}(1) + VID_2266&PID_0007(2)</USBConnectionRoute></ChronosDeviceInfo>;"<?xml version=""1.0""?>\n<Clock xmlns:dt=""urn:schemas-microsoft-com:datatypes""><Description dt:dt=""string"">E-Prime Primary Realtime Clock</Description><StartTime><Timestamp dt:dt=""int"">0</Timestamp><DateUtc dt:dt=""string"">2013-09-14T08:47:42Z</DateUtc></StartTime><FrequencyChanges><FrequencyChange><Frequency dt:dt=""r8"">3312832</Frequency><Timestamp dt:dt=""r8"">607714425654</Timestamp><Current dt:dt=""r8"">0</Current><DateUtc dt:dt=""string"">2013-09-14T08:47:42Z</DateUtc></FrequencyChange></FrequencyChanges></Clock>\n";EXP2.2_290421-10023-1;59.951;1.0.0.369;1;Chronos;2124611688;Full;3.0.3.80;3.0.3.80;09-14-2013;14/09/2013 08:47;10:47:43;3.0.3.82;2;Chronos;;2;1;2;TESTVV;Generalbloc;;;;pretest;Chronos;33;15;VV_110521/900.png;6;1;33;0;blocVVstim;listVVTrial;;;;Chronos;0;;0;1;314798;200;;0;0;0;15;Chronos;0;0;314998;300;1;1244;316242;0;15;Chronos;0;0;315298;0;1;944;316242;;;;;;;;;;;;;;;;;;;
EXP2.2_290421;10023;1;Chronos;<ChronosDeviceInfo><FriendlyName>MyChronos</FriendlyName><DeviceIndex>1</DeviceIndex><SerialNumber>CHR-04301-1186</SerialNumber><EBNVersion>3.0.3.80</EBNVersion><FirmwareVersion>1.33</FirmwareVersion><APIVersion>1.33</APIVersion><USBHostControllerVersion>2.0</USBHostControllerVersion><USBConnectionRoute>USB#ROOT_HUB20#4&f63975&0#{f18a0e88-c30c-11d0-8815-00a0c906bed8} + USB#VID_8087&PID_0024#5&365d106a&0&1#{f18a0e88-c30c-11d0-8815-00a0c906bed8}(1) + VID_2266&PID_0007(2)</USBConnectionRoute></ChronosDeviceInfo>;"<?xml version=""1.0""?>\n<Clock xmlns:dt=""urn:schemas-microsoft-com:datatypes""><Description dt:dt=""string"">E-Prime Primary Realtime Clock</Description><StartTime><Timestamp dt:dt=""int"">0</Timestamp><DateUtc dt:dt=""string"">2013-09-14T08:47:42Z</DateUtc></StartTime><FrequencyChanges><FrequencyChange><Frequency dt:dt=""r8"">3312832</Frequency><Timestamp dt:dt=""r8"">607714425654</Timestamp><Current dt:dt=""r8"">0</Current><DateUtc dt:dt=""string"">2013-09-14T08:47:42Z</DateUtc></FrequencyChange></FrequencyChanges></Clock>\n";EXP2.2_290421-10023-1;59.951;1.0.0.369;1;Chronos;2124611688;Full;3.0.3.80;3.0.3.80;09-14-2013;14/09/2013 08:47;10:47:43;3.0.3.82;2;Chronos;;2;1;2;TESTVV;Generalbloc;;;;pretest;Chronos;34;1;VV_110521/885.png;3;1;34;-15;blocVVstim;listVVTrial;;;;Chronos;0;;0;1;317767;200;;0;0;1;1;Chronos;0;0;317967;300;1;702;318669;1;1;Chronos;0;0;318267;0;1;402;318669;;;;;;;;;;;;;;;;;;;
EXP2.2_290421;10023;1;Chronos;<ChronosDeviceInfo><FriendlyName>MyChronos</FriendlyName><DeviceIndex>1</DeviceIndex><SerialNumber>CHR-04301-1186</SerialNumber><EBNVersion>3.0.3.80</EBNVersion><FirmwareVersion>1.33</FirmwareVersion><APIVersion>1.33</APIVersion><USBHostControllerVersion>2.0</USBHostControllerVersion><USBConnectionRoute>USB#ROOT_HUB20#4&f63975&0#{f18a0e88-c30c-11d0-8815-00a0c906bed8} + USB#VID_8087&PID_0024#5&365d106a&0&1#{f18a0e88-c30c-11d0-8815-00a0c906bed8}(1) + VID_2266&PID_0007(2)</USBConnectionRoute></ChronosDeviceInfo>;"<?xml version=""1.0""?>\n<Clock xmlns:dt=""urn:schemas-microsoft-com:datatypes""><Description dt:dt=""string"">E-Prime Primary Realtime Clock</Description><StartTime><Timestamp dt:dt=""int"">0</Timestamp><DateUtc dt:dt=""string"">2013-09-14T08:47:42Z</DateUtc></StartTime><FrequencyChanges><FrequencyChange><Frequency dt:dt=""r8"">3312832</Frequency><Timestamp dt:dt=""r8"">607714425654</Timestamp><Current dt:dt=""r8"">0</Current><DateUtc dt:dt=""string"">2013-09-14T08:47:42Z</DateUtc></FrequencyChange></FrequencyChanges></Clock>\n";EXP2.2_290421-10023-1;59.951;1.0.0.369;1;Chronos;2124611688;Full;3.0.3.80;3.0.3.80;09-14-2013;14/09/2013 08:47;10:47:43;3.0.3.82;2;Chronos;;2;1;2;TESTVV;Generalbloc;;;;pretest;Chronos;35;5;VV_110521/920.png;10;1;35;20;blocVVstim;listVVTrial;;;;Chronos;0;;0;1;320202;201;;0;0;1;5;Chronos;0;1;320403;300;5;409;320812;1;5;Chronos;0;0;320703;0;5;109;320812;;;;;;;;;;;;;;;;;;;
EXP2.2_290421;10023;1;Chronos;<ChronosDeviceInfo><FriendlyName>MyChronos</FriendlyName><DeviceIndex>1</DeviceIndex><SerialNumber>CHR-04301-1186</SerialNumber><EBNVersion>3.0.3.80</EBNVersion><FirmwareVersion>1.33</FirmwareVersion><APIVersion>1.33</APIVersion><USBHostControllerVersion>2.0</USBHostControllerVersion><USBConnectionRoute>USB#ROOT_HUB20#4&f63975&0#{f18a0e88-c30c-11d0-8815-00a0c906bed8} + USB#VID_8087&PID_0024#5&365d106a&0&1#{f18a0e88-c30c-11d0-8815-00a0c906bed8}(1) + VID_2266&PID_0007(2)</USBConnectionRoute></ChronosDeviceInfo>;"<?xml version=""1.0""?>\n<Clock xmlns:dt=""urn:schemas-microsoft-com:datatypes""><Description dt:dt=""string"">E-Prime Primary Realtime Clock</Description><StartTime><Timestamp dt:dt=""int"">0</Timestamp><DateUtc dt:dt=""string"">2013-09-14T08:47:42Z</DateUtc></StartTime><FrequencyChanges><FrequencyChange><Frequency dt:dt=""r8"">3312832</Frequency><Timestamp dt:dt=""r8"">607714425654</Timestamp><Current dt:dt=""r8"">0</Current><DateUtc dt:dt=""string"">2013-09-14T08:47:42Z</DateUtc></FrequencyChange></FrequencyChanges></Clock>\n";EXP2.2_290421-10023-1;59.951;1.0.0.369;1;Chronos;2124611688;Full;3.0.3.80;3.0.3.80;09-14-2013;14/09/2013 08:47;10:47:43;3.0.3.82;2;Chronos;;2;1;2;TESTVV;Generalbloc;;;;pretest;Chronos;36;15;VV_110521/900.png;6;1;36;0;blocVVstim;listVVTrial;;;;Chronos;0;;1;1;322337;201;;0;0;0;15;Chronos;0;1;322538;300;1;961;323499;0;15;Chronos;0;0;322838;0;1;661;323499;;;;;;;;;;;;;;;;;;;
EXP2.2_290421;10023;1;Chronos;<ChronosDeviceInfo><FriendlyName>MyChronos</FriendlyName><DeviceIndex>1</DeviceIndex><SerialNumber>CHR-04301-1186</SerialNumber><EBNVersion>3.0.3.80</EBNVersion><FirmwareVersion>1.33</FirmwareVersion><APIVersion>1.33</APIVersion><USBHostControllerVersion>2.0</USBHostControllerVersion><USBConnectionRoute>USB#ROOT_HUB20#4&f63975&0#{f18a0e88-c30c-11d0-8815-00a0c906bed8} + USB#VID_8087&PID_0024#5&365d106a&0&1#{f18a0e88-c30c-11d0-8815-00a0c906bed8}(1) + VID_2266&PID_0007(2)</USBConnectionRoute></ChronosDeviceInfo>;"<?xml version=""1.0""?>\n<Clock xmlns:dt=""urn:schemas-microsoft-com:datatypes""><Description dt:dt=""string"">E-Prime Primary Realtime Clock</Description><StartTime><Timestamp dt:dt=""int"">0</Timestamp><DateUtc dt:dt=""string"">2013-09-14T08:47:42Z</DateUtc></StartTime><FrequencyChanges><FrequencyChange><Frequency dt:dt=""r8"">3312832</Frequency><Timestamp dt:dt=""r8"">607714425654</Timestamp><Current dt:dt=""r8"">0</Current><DateUtc dt:dt=""string"">2013-09-14T08:47:42Z</DateUtc></FrequencyChange></FrequencyChanges></Clock>\n";EXP2.2_290421-10023-1;59.951;1.0.0.369;1;Chronos;2124611688;Full;3.0.3.80;3.0.3.80;09-14-2013;14/09/2013 08:47;10:47:43;3.0.3.82;2;Chronos;;2;1;2;TESTVV;Generalbloc;;;;pretest;Chronos;37;5;VV_110521/905.png;7;1;37;5;blocVVstim;listVVTrial;;;;Chronos;0;;0;1;325023;200;;0;0;1;5;Chronos;0;0;325223;300;5;628;325851;1;5;Chronos;1;0;325523;0;5;328;325851;;;;;;;;;;;;;;;;;;;
EXP2.2_290421;10023;1;Chronos;<ChronosDeviceInfo><FriendlyName>MyChronos</FriendlyName><DeviceIndex>1</DeviceIndex><SerialNumber>CHR-04301-1186</SerialNumber><EBNVersion>3.0.3.80</EBNVersion><FirmwareVersion>1.33</FirmwareVersion><APIVersion>1.33</APIVersion><USBHostControllerVersion>2.0</USBHostControllerVersion><USBConnectionRoute>USB#ROOT_HUB20#4&f63975&0#{f18a0e88-c30c-11d0-8815-00a0c906bed8} + USB#VID_8087&PID_0024#5&365d106a&0&1#{f18a0e88-c30c-11d0-8815-00a0c906bed8}(1) + VID_2266&PID_0007(2)</USBConnectionRoute></ChronosDeviceInfo>;"<?xml version=""1.0""?>\n<Clock xmlns:dt=""urn:schemas-microsoft-com:datatypes""><Description dt:dt=""string"">E-Prime Primary Realtime Clock</Description><StartTime><Timestamp dt:dt=""int"">0</Timestamp><DateUtc dt:dt=""string"">2013-09-14T08:47:42Z</DateUtc></StartTime><FrequencyChanges><FrequencyChange><Frequency dt:dt=""r8"">3312832</Frequency><Timestamp dt:dt=""r8"">607714425654</Timestamp><Current dt:dt=""r8"">0</Current><DateUtc dt:dt=""string"">2013-09-14T08:47:42Z</DateUtc></FrequencyChange></FrequencyChanges></Clock>\n";EXP2.2_290421-10023-1;59.951;1.0.0.369;1;Chronos;2124611688;Full;3.0.3.80;3.0.3.80;09-14-2013;14/09/2013 08:47;10:47:43;3.0.3.82;2;Chronos;;2;1;2;TESTVV;Generalbloc;;;;pretest;Chronos;38;15;VV_110521/900.png;6;1;38;0;blocVVstim;listVVTrial;;;;Chronos;0;;0;1;327375;200;;0;0;0;15;Chronos;0;0;327575;300;1;771;328346;0;15;Chronos;0;0;327875;0;1;471;328346;;;;;;;;;;;;;;;;;;;
EXP2.2_290421;10023;1;Chronos;<ChronosDeviceInfo><FriendlyName>MyChronos</FriendlyName><DeviceIndex>1</DeviceIndex><SerialNumber>CHR-04301-1186</SerialNumber><EBNVersion>3.0.3.80</EBNVersion><FirmwareVersion>1.33</FirmwareVersion><APIVersion>1.33</APIVersion><USBHostControllerVersion>2.0</USBHostControllerVersion><USBConnectionRoute>USB#ROOT_HUB20#4&f63975&0#{f18a0e88-c30c-11d0-8815-00a0c906bed8} + USB#VID_8087&PID_0024#5&365d106a&0&1#{f18a0e88-c30c-11d0-8815-00a0c906bed8}(1) + VID_2266&PID_0007(2)</USBConnectionRoute></ChronosDeviceInfo>;"<?xml version=""1.0""?>\n<Clock xmlns:dt=""urn:schemas-microsoft-com:datatypes""><Description dt:dt=""string"">E-Prime Primary Realtime Clock</Description><StartTime><Timestamp dt:dt=""int"">0</Timestamp><DateUtc dt:dt=""string"">2013-09-14T08:47:42Z</DateUtc></StartTime><FrequencyChanges><FrequencyChange><Frequency dt:dt=""r8"">3312832</Frequency><Timestamp dt:dt=""r8"">607714425654</Timestamp><Current dt:dt=""r8"">0</Current><DateUtc dt:dt=""string"">2013-09-14T08:47:42Z</DateUtc></FrequencyChange></FrequencyChanges></Clock>\n";EXP2.2_290421-10023-1;59.951;1.0.0.369;1;Chronos;2124611688;Full;3.0.3.80;3.0.3.80;09-14-2013;14/09/2013 08:47;10:47:43;3.0.3.82;2;Chronos;;2;1;2;TESTVV;Generalbloc;;;;pretest;Chronos;39;5;VV_110521/910.png;8;1;39;10;blocVVstim;listVVTrial;;;;Chronos;0;;0;1;329877;200;;0;0;1;5;Chronos;0;0;330077;300;5;538;330615;1;5;Chronos;1;0;330377;0;5;238;330615;;;;;;;;;;;;;;;;;;;
EXP2.2_290421;10023;1;Chronos;<ChronosDeviceInfo><FriendlyName>MyChronos</FriendlyName><DeviceIndex>1</DeviceIndex><SerialNumber>CHR-04301-1186</SerialNumber><EBNVersion>3.0.3.80</EBNVersion><FirmwareVersion>1.33</FirmwareVersion><APIVersion>1.33</APIVersion><USBHostControllerVersion>2.0</USBHostControllerVersion><USBConnectionRoute>USB#ROOT_HUB20#4&f63975&0#{f18a0e88-c30c-11d0-8815-00a0c906bed8} + USB#VID_8087&PID_0024#5&365d106a&0&1#{f18a0e88-c30c-11d0-8815-00a0c906bed8}(1) + VID_2266&PID_0007(2)</USBConnectionRoute></ChronosDeviceInfo>;"<?xml version=""1.0""?>\n<Clock xmlns:dt=""urn:schemas-microsoft-com:datatypes""><Description dt:dt=""string"">E-Prime Primary Realtime Clock</Description><StartTime><Timestamp dt:dt=""int"">0</Timestamp><DateUtc dt:dt=""string"">2013-09-14T08:47:42Z</DateUtc></StartTime><FrequencyChanges><FrequencyChange><Frequency dt:dt=""r8"">3312832</Frequency><Timestamp dt:dt=""r8"">607714425654</Timestamp><Current dt:dt=""r8"">0</Current><DateUtc dt:dt=""string"">2013-09-14T08:47:42Z</DateUtc></FrequencyChange></FrequencyChanges></Clock>\n";EXP2.2_290421-10023-1;59.951;1.0.0.369;1;Chronos;2124611688;Full;3.0.3.80;3.0.3.80;09-14-2013;14/09/2013 08:47;10:47:43;3.0.3.82;2;Chronos;;2;1;2;TESTVV;Generalbloc;;;;pretest;Chronos;40;1;VV_110521/885.png;3;1;40;-15;blocVVstim;listVVTrial;;;;Chronos;0;;0;2;332146;200;;0;0;1;1;Chronos;0;0;332346;0;1;291;332637;0;;;-999999;0;332646;0;;0;0;;;;;;;;;;;;;;;;;;;
EXP2.2_290421;10023;1;Chronos;<ChronosDeviceInfo><FriendlyName>MyChronos</FriendlyName><DeviceIndex>1</DeviceIndex><SerialNumber>CHR-04301-1186</SerialNumber><EBNVersion>3.0.3.80</EBNVersion><FirmwareVersion>1.33</FirmwareVersion><APIVersion>1.33</APIVersion><USBHostControllerVersion>2.0</USBHostControllerVersion><USBConnectionRoute>USB#ROOT_HUB20#4&f63975&0#{f18a0e88-c30c-11d0-8815-00a0c906bed8} + USB#VID_8087&PID_0024#5&365d106a&0&1#{f18a0e88-c30c-11d0-8815-00a0c906bed8}(1) + VID_2266&PID_0007(2)</USBConnectionRoute></ChronosDeviceInfo>;"<?xml version=""1.0""?>\n<Clock xmlns:dt=""urn:schemas-microsoft-com:datatypes""><Description dt:dt=""string"">E-Prime Primary Realtime Clock</Description><StartTime><Timestamp dt:dt=""int"">0</Timestamp><DateUtc dt:dt=""string"">2013-09-14T08:47:42Z</DateUtc></StartTime><FrequencyChanges><FrequencyChange><Frequency dt:dt=""r8"">3312832</Frequency><Timestamp dt:dt=""r8"">607714425654</Timestamp><Current dt:dt=""r8"">0</Current><DateUtc dt:dt=""string"">2013-09-14T08:47:42Z</DateUtc></FrequencyChange></FrequencyChanges></Clock>\n";EXP2.2_290421-10023-1;59.951;1.0.0.369;1;Chronos;2124611688;Full;3.0.3.80;3.0.3.80;09-14-2013;14/09/2013 08:47;10:47:43;3.0.3.82;2;Chronos;;2;1;2;TESTVV;Generalbloc;;;;pretest;Chronos;41;5;VV_110521/925.png;11;1;41;25;blocVVstim;listVVTrial;;;;Chronos;0;;0;2;334181;200;;0;0;1;5;Chronos;0;0;334381;300;5;357;334738;1;5;Chronos;0;0;334681;0;5;57;334738;;;;;;;;;;;;;;;;;;;
EXP2.2_290421;10023;1;Chronos;<ChronosDeviceInfo><FriendlyName>MyChronos</FriendlyName><DeviceIndex>1</DeviceIndex><SerialNumber>CHR-04301-1186</SerialNumber><EBNVersion>3.0.3.80</EBNVersion><FirmwareVersion>1.33</FirmwareVersion><APIVersion>1.33</APIVersion><USBHostControllerVersion>2.0</USBHostControllerVersion><USBConnectionRoute>USB#ROOT_HUB20#4&f63975&0#{f18a0e88-c30c-11d0-8815-00a0c906bed8} + USB#VID_8087&PID_0024#5&365d106a&0&1#{f18a0e88-c30c-11d0-8815-00a0c906bed8}(1) + VID_2266&PID_0007(2)</USBConnectionRoute></ChronosDeviceInfo>;"<?xml version=""1.0""?>\n<Clock xmlns:dt=""urn:schemas-microsoft-com:datatypes""><Description dt:dt=""string"">E-Prime Primary Realtime Clock</Description><StartTime><Timestamp dt:dt=""int"">0</Timestamp><DateUtc dt:dt=""string"">2013-09-14T08:47:42Z</DateUtc></StartTime><FrequencyChanges><FrequencyChange><Frequency dt:dt=""r8"">3312832</Frequency><Timestamp dt:dt=""r8"">607714425654</Timestamp><Current dt:dt=""r8"">0</Current><DateUtc dt:dt=""string"">2013-09-14T08:47:42Z</DateUtc></FrequencyChange></FrequencyChanges></Clock>\n";EXP2.2_290421-10023-1;59.951;1.0.0.369;1;Chronos;2124611688;Full;3.0.3.80;3.0.3.80;09-14-2013;14/09/2013 08:47;10:47:43;3.0.3.82;2;Chronos;;2;1;2;TESTVV;Generalbloc;;;;pretest;Chronos;42;1;VV_110521/880.png;2;1;42;-20;blocVVstim;listVVTrial;;;;Chronos;0;;0;2;336266;200;;0;0;1;1;Chronos;0;0;336466;0;1;248;336714;0;;;-999999;0;0;0;;0;0;;;;;;;;;;;;;;;;;;;
EXP2.2_290421;10023;1;Chronos;<ChronosDeviceInfo><FriendlyName>MyChronos</FriendlyName><DeviceIndex>1</DeviceIndex><SerialNumber>CHR-04301-1186</SerialNumber><EBNVersion>3.0.3.80</EBNVersion><FirmwareVersion>1.33</FirmwareVersion><APIVersion>1.33</APIVersion><USBHostControllerVersion>2.0</USBHostControllerVersion><USBConnectionRoute>USB#ROOT_HUB20#4&f63975&0#{f18a0e88-c30c-11d0-8815-00a0c906bed8} + USB#VID_8087&PID_0024#5&365d106a&0&1#{f18a0e88-c30c-11d0-8815-00a0c906bed8}(1) + VID_2266&PID_0007(2)</USBConnectionRoute></ChronosDeviceInfo>;"<?xml version=""1.0""?>\n<Clock xmlns:dt=""urn:schemas-microsoft-com:datatypes""><Description dt:dt=""string"">E-Prime Primary Realtime Clock</Description><StartTime><Timestamp dt:dt=""int"">0</Timestamp><DateUtc dt:dt=""string"">2013-09-14T08:47:42Z</DateUtc></StartTime><FrequencyChanges><FrequencyChange><Frequency dt:dt=""r8"">3312832</Frequency><Timestamp dt:dt=""r8"">607714425654</Timestamp><Current dt:dt=""r8"">0</Current><DateUtc dt:dt=""string"">2013-09-14T08:47:42Z</DateUtc></FrequencyChange></FrequencyChanges></Clock>\n";EXP2.2_290421-10023-1;59.951;1.0.0.369;1;Chronos;2124611688;Full;3.0.3.80;3.0.3.80;09-14-2013;14/09/2013 08:47;10:47:43;3.0.3.82;2;Chronos;;2;1;2;TESTVV;Generalbloc;;;;pretest;Chronos;43;5;VV_110521/925.png;11;1;43;25;blocVVstim;listVVTrial;;;;Chronos;0;;0;2;338251;200;;0;0;1;5;Chronos;0;0;338451;0;5;244;338695;0;;;-999999;0;0;0;;0;0;;;;;;;;;;;;;;;;;;;
EXP2.2_290421;10023;1;Chronos;<ChronosDeviceInfo><FriendlyName>MyChronos</FriendlyName><DeviceIndex>1</DeviceIndex><SerialNumber>CHR-04301-1186</SerialNumber><EBNVersion>3.0.3.80</EBNVersion><FirmwareVersion>1.33</FirmwareVersion><APIVersion>1.33</APIVersion><USBHostControllerVersion>2.0</USBHostControllerVersion><USBConnectionRoute>USB#ROOT_HUB20#4&f63975&0#{f18a0e88-c30c-11d0-8815-00a0c906bed8} + USB#VID_8087&PID_0024#5&365d106a&0&1#{f18a0e88-c30c-11d0-8815-00a0c906bed8}(1) + VID_2266&PID_0007(2)</USBConnectionRoute></ChronosDeviceInfo>;"<?xml version=""1.0""?>\n<Clock xmlns:dt=""urn:schemas-microsoft-com:datatypes""><Description dt:dt=""string"">E-Prime Primary Realtime Clock</Description><StartTime><Timestamp dt:dt=""int"">0</Timestamp><DateUtc dt:dt=""string"">2013-09-14T08:47:42Z</DateUtc></StartTime><FrequencyChanges><FrequencyChange><Frequency dt:dt=""r8"">3312832</Frequency><Timestamp dt:dt=""r8"">607714425654</Timestamp><Current dt:dt=""r8"">0</Current><DateUtc dt:dt=""string"">2013-09-14T08:47:42Z</DateUtc></FrequencyChange></FrequencyChanges></Clock>\n";EXP2.2_290421-10023-1;59.951;1.0.0.369;1;Chronos;2124611688;Full;3.0.3.80;3.0.3.80;09-14-2013;14/09/2013 08:47;10:47:43;3.0.3.82;2;Chronos;;2;1;2;TESTVV;Generalbloc;;;;pretest;Chronos;44;5;VV_110521/905.png;7;1;44;5;blocVVstim;listVVTrial;;;;Chronos;0;;0;1;340219;200;;0;0;1;5;Chronos;0;0;340419;300;5;785;341204;1;5;Chronos;0;0;340719;0;5;485;341204;;;;;;;;;;;;;;;;;;;
EXP2.2_290421;10023;1;Chronos;<ChronosDeviceInfo><FriendlyName>MyChronos</FriendlyName><DeviceIndex>1</DeviceIndex><SerialNumber>CHR-04301-1186</SerialNumber><EBNVersion>3.0.3.80</EBNVersion><FirmwareVersion>1.33</FirmwareVersion><APIVersion>1.33</APIVersion><USBHostControllerVersion>2.0</USBHostControllerVersion><USBConnectionRoute>USB#ROOT_HUB20#4&f63975&0#{f18a0e88-c30c-11d0-8815-00a0c906bed8} + USB#VID_8087&PID_0024#5&365d106a&0&1#{f18a0e88-c30c-11d0-8815-00a0c906bed8}(1) + VID_2266&PID_0007(2)</USBConnectionRoute></ChronosDeviceInfo>;"<?xml version=""1.0""?>\n<Clock xmlns:dt=""urn:schemas-microsoft-com:datatypes""><Description dt:dt=""string"">E-Prime Primary Realtime Clock</Description><StartTime><Timestamp dt:dt=""int"">0</Timestamp><DateUtc dt:dt=""string"">2013-09-14T08:47:42Z</DateUtc></StartTime><FrequencyChanges><FrequencyChange><Frequency dt:dt=""r8"">3312832</Frequency><Timestamp dt:dt=""r8"">607714425654</Timestamp><Current dt:dt=""r8"">0</Current><DateUtc dt:dt=""string"">2013-09-14T08:47:42Z</DateUtc></FrequencyChange></FrequencyChanges></Clock>\n";EXP2.2_290421-10023-1;59.951;1.0.0.369;1;Chronos;2124611688;Full;3.0.3.80;3.0.3.80;09-14-2013;14/09/2013 08:47;10:47:43;3.0.3.82;2;Chronos;;2;1;2;TESTVV;Generalbloc;;;;pretest;Chronos;45;1;VV_110521/880.png;2;1;45;-20;blocVVstim;listVVTrial;;;;Chronos;0;;0;2;342738;200;;0;0;1;1;Chronos;0;0;342938;0;1;288;343226;0;;;-999999;0;0;0;;0;0;;;;;;;;;;;;;;;;;;;
EXP2.2_290421;10023;1;Chronos;<ChronosDeviceInfo><FriendlyName>MyChronos</FriendlyName><DeviceIndex>1</DeviceIndex><SerialNumber>CHR-04301-1186</SerialNumber><EBNVersion>3.0.3.80</EBNVersion><FirmwareVersion>1.33</FirmwareVersion><APIVersion>1.33</APIVersion><USBHostControllerVersion>2.0</USBHostControllerVersion><USBConnectionRoute>USB#ROOT_HUB20#4&f63975&0#{f18a0e88-c30c-11d0-8815-00a0c906bed8} + USB#VID_8087&PID_0024#5&365d106a&0&1#{f18a0e88-c30c-11d0-8815-00a0c906bed8}(1) + VID_2266&PID_0007(2)</USBConnectionRoute></ChronosDeviceInfo>;"<?xml version=""1.0""?>\n<Clock xmlns:dt=""urn:schemas-microsoft-com:datatypes""><Description dt:dt=""string"">E-Prime Primary Realtime Clock</Description><StartTime><Timestamp dt:dt=""int"">0</Timestamp><DateUtc dt:dt=""string"">2013-09-14T08:47:42Z</DateUtc></StartTime><FrequencyChanges><FrequencyChange><Frequency dt:dt=""r8"">3312832</Frequency><Timestamp dt:dt=""r8"">607714425654</Timestamp><Current dt:dt=""r8"">0</Current><DateUtc dt:dt=""string"">2013-09-14T08:47:42Z</DateUtc></FrequencyChange></FrequencyChanges></Clock>\n";EXP2.2_290421-10023-1;59.951;1.0.0.369;1;Chronos;2124611688;Full;3.0.3.80;3.0.3.80;09-14-2013;14/09/2013 08:47;10:47:43;3.0.3.82;2;Chronos;;2;1;2;TESTVV;Generalbloc;;;;pretest;Chronos;46;1;VV_110521/875.png;1;1;46;-25;blocVVstim;listVVTrial;;;;Chronos;0;;0;1;344756;200;;0;0;1;1;Chronos;0;0;344956;0;1;258;345214;0;;;-999999;0;0;0;;0;0;;;;;;;;;;;;;;;;;;;
EXP2.2_290421;10023;1;Chronos;<ChronosDeviceInfo><FriendlyName>MyChronos</FriendlyName><DeviceIndex>1</DeviceIndex><SerialNumber>CHR-04301-1186</SerialNumber><EBNVersion>3.0.3.80</EBNVersion><FirmwareVersion>1.33</FirmwareVersion><APIVersion>1.33</APIVersion><USBHostControllerVersion>2.0</USBHostControllerVersion><USBConnectionRoute>USB#ROOT_HUB20#4&f63975&0#{f18a0e88-c30c-11d0-8815-00a0c906bed8} + USB#VID_8087&PID_0024#5&365d106a&0&1#{f18a0e88-c30c-11d0-8815-00a0c906bed8}(1) + VID_2266&PID_0007(2)</USBConnectionRoute></ChronosDeviceInfo>;"<?xml version=""1.0""?>\n<Clock xmlns:dt=""urn:schemas-microsoft-com:datatypes""><Description dt:dt=""string"">E-Prime Primary Realtime Clock</Description><StartTime><Timestamp dt:dt=""int"">0</Timestamp><DateUtc dt:dt=""string"">2013-09-14T08:47:42Z</DateUtc></StartTime><FrequencyChanges><FrequencyChange><Frequency dt:dt=""r8"">3312832</Frequency><Timestamp dt:dt=""r8"">607714425654</Timestamp><Current dt:dt=""r8"">0</Current><DateUtc dt:dt=""string"">2013-09-14T08:47:42Z</DateUtc></FrequencyChange></FrequencyChanges></Clock>\n";EXP2.2_290421-10023-1;59.951;1.0.0.369;1;Chronos;2124611688;Full;3.0.3.80;3.0.3.80;09-14-2013;14/09/2013 08:47;10:47:43;3.0.3.82;2;Chronos;;2;1;2;TESTVV;Generalbloc;;;;pretest;Chronos;47;5;VV_110521/920.png;10;1;47;20;blocVVstim;listVVTrial;;;;Chronos;0;;0;1;346741;200;;0;0;1;5;Chronos;0;0;346941;0;5;260;347201;0;;;-999999;0;0;0;;0;0;;;;;;;;;;;;;;;;;;;
EXP2.2_290421;10023;1;Chronos;<ChronosDeviceInfo><FriendlyName>MyChronos</FriendlyName><DeviceIndex>1</DeviceIndex><SerialNumber>CHR-04301-1186</SerialNumber><EBNVersion>3.0.3.80</EBNVersion><FirmwareVersion>1.33</FirmwareVersion><APIVersion>1.33</APIVersion><USBHostControllerVersion>2.0</USBHostControllerVersion><USBConnectionRoute>USB#ROOT_HUB20#4&f63975&0#{f18a0e88-c30c-11d0-8815-00a0c906bed8} + USB#VID_8087&PID_0024#5&365d106a&0&1#{f18a0e88-c30c-11d0-8815-00a0c906bed8}(1) + VID_2266&PID_0007(2)</USBConnectionRoute></ChronosDeviceInfo>;"<?xml version=""1.0""?>\n<Clock xmlns:dt=""urn:schemas-microsoft-com:datatypes""><Description dt:dt=""string"">E-Prime Primary Realtime Clock</Description><StartTime><Timestamp dt:dt=""int"">0</Timestamp><DateUtc dt:dt=""string"">2013-09-14T08:47:42Z</DateUtc></StartTime><FrequencyChanges><FrequencyChange><Frequency dt:dt=""r8"">3312832</Frequency><Timestamp dt:dt=""r8"">607714425654</Timestamp><Current dt:dt=""r8"">0</Current><DateUtc dt:dt=""string"">2013-09-14T08:47:42Z</DateUtc></FrequencyChange></FrequencyChanges></Clock>\n";EXP2.2_290421-10023-1;59.951;1.0.0.369;1;Chronos;2124611688;Full;3.0.3.80;3.0.3.80;09-14-2013;14/09/2013 08:47;10:47:43;3.0.3.82;2;Chronos;;2;1;2;TESTVV;Generalbloc;;;;pretest;Chronos;48;15;VV_110521/900.png;6;1;48;0;blocVVstim;listVVTrial;;;;Chronos;0;;0;1;348726;200;;0;0;0;15;Chronos;0;0;348926;300;5;882;349808;0;15;Chronos;0;0;349226;0;5;582;349808;;;;;;;;;;;;;;;;;;;
EXP2.2_290421;10023;1;Chronos;<ChronosDeviceInfo><FriendlyName>MyChronos</FriendlyName><DeviceIndex>1</DeviceIndex><SerialNumber>CHR-04301-1186</SerialNumber><EBNVersion>3.0.3.80</EBNVersion><FirmwareVersion>1.33</FirmwareVersion><APIVersion>1.33</APIVersion><USBHostControllerVersion>2.0</USBHostControllerVersion><USBConnectionRoute>USB#ROOT_HUB20#4&f63975&0#{f18a0e88-c30c-11d0-8815-00a0c906bed8} + USB#VID_8087&PID_0024#5&365d106a&0&1#{f18a0e88-c30c-11d0-8815-00a0c906bed8}(1) + VID_2266&PID_0007(2)</USBConnectionRoute></ChronosDeviceInfo>;"<?xml version=""1.0""?>\n<Clock xmlns:dt=""urn:schemas-microsoft-com:datatypes""><Description dt:dt=""string"">E-Prime Primary Realtime Clock</Description><StartTime><Timestamp dt:dt=""int"">0</Timestamp><DateUtc dt:dt=""string"">2013-09-14T08:47:42Z</DateUtc></StartTime><FrequencyChanges><FrequencyChange><Frequency dt:dt=""r8"">3312832</Frequency><Timestamp dt:dt=""r8"">607714425654</Timestamp><Current dt:dt=""r8"">0</Current><DateUtc dt:dt=""string"">2013-09-14T08:47:42Z</DateUtc></FrequencyChange></FrequencyChanges></Clock>\n";EXP2.2_290421-10023-1;59.951;1.0.0.369;1;Chronos;2124611688;Full;3.0.3.80;3.0.3.80;09-14-2013;14/09/2013 08:47;10:47:43;3.0.3.82;2;Chronos;;2;1;2;TESTVV;Generalbloc;;;;pretest;Chronos;49;5;VV_110521/915.png;9;1;49;15;blocVVstim;listVVTrial;;;;Chronos;0;;0;1;351345;200;;0;0;1;5;Chronos;0;0;351545;300;5;521;352066;1;5;Chronos;0;0;351845;0;5;221;352066;;;;;;;;;;;;;;;;;;;
EXP2.2_290421;10023;1;Chronos;<ChronosDeviceInfo><FriendlyName>MyChronos</FriendlyName><DeviceIndex>1</DeviceIndex><SerialNumber>CHR-04301-1186</SerialNumber><EBNVersion>3.0.3.80</EBNVersion><FirmwareVersion>1.33</FirmwareVersion><APIVersion>1.33</APIVersion><USBHostControllerVersion>2.0</USBHostControllerVersion><USBConnectionRoute>USB#ROOT_HUB20#4&f63975&0#{f18a0e88-c30c-11d0-8815-00a0c906bed8} + USB#VID_8087&PID_0024#5&365d106a&0&1#{f18a0e88-c30c-11d0-8815-00a0c906bed8}(1) + VID_2266&PID_0007(2)</USBConnectionRoute></ChronosDeviceInfo>;"<?xml version=""1.0""?>\n<Clock xmlns:dt=""urn:schemas-microsoft-com:datatypes""><Description dt:dt=""string"">E-Prime Primary Realtime Clock</Description><StartTime><Timestamp dt:dt=""int"">0</Timestamp><DateUtc dt:dt=""string"">2013-09-14T08:47:42Z</DateUtc></StartTime><FrequencyChanges><FrequencyChange><Frequency dt:dt=""r8"">3312832</Frequency><Timestamp dt:dt=""r8"">607714425654</Timestamp><Current dt:dt=""r8"">0</Current><DateUtc dt:dt=""string"">2013-09-14T08:47:42Z</DateUtc></FrequencyChange></FrequencyChanges></Clock>\n";EXP2.2_290421-10023-1;59.951;1.0.0.369;1;Chronos;2124611688;Full;3.0.3.80;3.0.3.80;09-14-2013;14/09/2013 08:47;10:47:43;3.0.3.82;2;Chronos;;2;1;2;TESTVV;Generalbloc;;;;pretest;Chronos;50;1;VV_110521/885.png;3;1;50;-15;blocVVstim;listVVTrial;;;;Chronos;0;;0;2;353597;200;;0;0;1;1;Chronos;0;0;353797;300;1;330;354127;1;1;Chronos;0;0;354097;0;1;30;354127;;;;;;;;;;;;;;;;;;;
EXP2.2_290421;10023;1;Chronos;<ChronosDeviceInfo><FriendlyName>MyChronos</FriendlyName><DeviceIndex>1</DeviceIndex><SerialNumber>CHR-04301-1186</SerialNumber><EBNVersion>3.0.3.80</EBNVersion><FirmwareVersion>1.33</FirmwareVersion><APIVersion>1.33</APIVersion><USBHostControllerVersion>2.0</USBHostControllerVersion><USBConnectionRoute>USB#ROOT_HUB20#4&f63975&0#{f18a0e88-c30c-11d0-8815-00a0c906bed8} + USB#VID_8087&PID_0024#5&365d106a&0&1#{f18a0e88-c30c-11d0-8815-00a0c906bed8}(1) + VID_2266&PID_0007(2)</USBConnectionRoute></ChronosDeviceInfo>;"<?xml version=""1.0""?>\n<Clock xmlns:dt=""urn:schemas-microsoft-com:datatypes""><Description dt:dt=""string"">E-Prime Primary Realtime Clock</Description><StartTime><Timestamp dt:dt=""int"">0</Timestamp><DateUtc dt:dt=""string"">2013-09-14T08:47:42Z</DateUtc></StartTime><FrequencyChanges><FrequencyChange><Frequency dt:dt=""r8"">3312832</Frequency><Timestamp dt:dt=""r8"">607714425654</Timestamp><Current dt:dt=""r8"">0</Current><DateUtc dt:dt=""string"">2013-09-14T08:47:42Z</DateUtc></FrequencyChange></FrequencyChanges></Clock>\n";EXP2.2_290421-10023-1;59.951;1.0.0.369;1;Chronos;2124611688;Full;3.0.3.80;3.0.3.80;09-14-2013;14/09/2013 08:47;10:47:43;3.0.3.82;2;Chronos;;2;1;2;TESTVV;Generalbloc;;;;pretest;Chronos;51;1;VV_110521/875.png;1;1;51;-25;blocVVstim;listVVTrial;;;;Chronos;0;;0;1;355648;201;;0;0;1;1;Chronos;0;1;355849;300;1;389;356238;1;1;Chronos;0;0;356149;0;1;89;356238;;;;;;;;;;;;;;;;;;;
EXP2.2_290421;10023;1;Chronos;<ChronosDeviceInfo><FriendlyName>MyChronos</FriendlyName><DeviceIndex>1</DeviceIndex><SerialNumber>CHR-04301-1186</SerialNumber><EBNVersion>3.0.3.80</EBNVersion><FirmwareVersion>1.33</FirmwareVersion><APIVersion>1.33</APIVersion><USBHostControllerVersion>2.0</USBHostControllerVersion><USBConnectionRoute>USB#ROOT_HUB20#4&f63975&0#{f18a0e88-c30c-11d0-8815-00a0c906bed8} + USB#VID_8087&PID_0024#5&365d106a&0&1#{f18a0e88-c30c-11d0-8815-00a0c906bed8}(1) + VID_2266&PID_0007(2)</USBConnectionRoute></ChronosDeviceInfo>;"<?xml version=""1.0""?>\n<Clock xmlns:dt=""urn:schemas-microsoft-com:datatypes""><Description dt:dt=""string"">E-Prime Primary Realtime Clock</Description><StartTime><Timestamp dt:dt=""int"">0</Timestamp><DateUtc dt:dt=""string"">2013-09-14T08:47:42Z</DateUtc></StartTime><FrequencyChanges><FrequencyChange><Frequency dt:dt=""r8"">3312832</Frequency><Timestamp dt:dt=""r8"">607714425654</Timestamp><Current dt:dt=""r8"">0</Current><DateUtc dt:dt=""string"">2013-09-14T08:47:42Z</DateUtc></FrequencyChange></FrequencyChanges></Clock>\n";EXP2.2_290421-10023-1;59.951;1.0.0.369;1;Chronos;2124611688;Full;3.0.3.80;3.0.3.80;09-14-2013;14/09/2013 08:47;10:47:43;3.0.3.82;2;Chronos;;2;1;2;TESTVV;Generalbloc;;;;pretest;Chronos;52;5;VV_110521/910.png;8;1;52;10;blocVVstim;listVVTrial;;;;Chronos;0;;0;1;357767;200;;0;0;1;5;Chronos;0;0;357967;300;5;486;358453;1;5;Chronos;0;0;358267;0;5;186;358453;;;;;;;;;;;;;;;;;;;
EXP2.2_290421;10023;1;Chronos;<ChronosDeviceInfo><FriendlyName>MyChronos</FriendlyName><DeviceIndex>1</DeviceIndex><SerialNumber>CHR-04301-1186</SerialNumber><EBNVersion>3.0.3.80</EBNVersion><FirmwareVersion>1.33</FirmwareVersion><APIVersion>1.33</APIVersion><USBHostControllerVersion>2.0</USBHostControllerVersion><USBConnectionRoute>USB#ROOT_HUB20#4&f63975&0#{f18a0e88-c30c-11d0-8815-00a0c906bed8} + USB#VID_8087&PID_0024#5&365d106a&0&1#{f18a0e88-c30c-11d0-8815-00a0c906bed8}(1) + VID_2266&PID_0007(2)</USBConnectionRoute></ChronosDeviceInfo>;"<?xml version=""1.0""?>\n<Clock xmlns:dt=""urn:schemas-microsoft-com:datatypes""><Description dt:dt=""string"">E-Prime Primary Realtime Clock</Description><StartTime><Timestamp dt:dt=""int"">0</Timestamp><DateUtc dt:dt=""string"">2013-09-14T08:47:42Z</DateUtc></StartTime><FrequencyChanges><FrequencyChange><Frequency dt:dt=""r8"">3312832</Frequency><Timestamp dt:dt=""r8"">607714425654</Timestamp><Current dt:dt=""r8"">0</Current><DateUtc dt:dt=""string"">2013-09-14T08:47:42Z</DateUtc></FrequencyChange></FrequencyChanges></Clock>\n";EXP2.2_290421-10023-1;59.951;1.0.0.369;1;Chronos;2124611688;Full;3.0.3.80;3.0.3.80;09-14-2013;14/09/2013 08:47;10:47:43;3.0.3.82;2;Chronos;;2;1;2;TESTVV;Generalbloc;;;;pretest;Chronos;53;5;VV_110521/925.png;11;1;53;25;blocVVstim;listVVTrial;;;;Chronos;0;;0;1;359985;200;;0;0;1;5;Chronos;1;0;360185;301;5;368;360553;1;5;Chronos;0;1;360486;0;5;67;360553;;;;;;;;;;;;;;;;;;;
EXP2.2_290421;10023;1;Chronos;<ChronosDeviceInfo><FriendlyName>MyChronos</FriendlyName><DeviceIndex>1</DeviceIndex><SerialNumber>CHR-04301-1186</SerialNumber><EBNVersion>3.0.3.80</EBNVersion><FirmwareVersion>1.33</FirmwareVersion><APIVersion>1.33</APIVersion><USBHostControllerVersion>2.0</USBHostControllerVersion><USBConnectionRoute>USB#ROOT_HUB20#4&f63975&0#{f18a0e88-c30c-11d0-8815-00a0c906bed8} + USB#VID_8087&PID_0024#5&365d106a&0&1#{f18a0e88-c30c-11d0-8815-00a0c906bed8}(1) + VID_2266&PID_0007(2)</USBConnectionRoute></ChronosDeviceInfo>;"<?xml version=""1.0""?>\n<Clock xmlns:dt=""urn:schemas-microsoft-com:datatypes""><Description dt:dt=""string"">E-Prime Primary Realtime Clock</Description><StartTime><Timestamp dt:dt=""int"">0</Timestamp><DateUtc dt:dt=""string"">2013-09-14T08:47:42Z</DateUtc></StartTime><FrequencyChanges><FrequencyChange><Frequency dt:dt=""r8"">3312832</Frequency><Timestamp dt:dt=""r8"">607714425654</Timestamp><Current dt:dt=""r8"">0</Current><DateUtc dt:dt=""string"">2013-09-14T08:47:42Z</DateUtc></FrequencyChange></FrequencyChanges></Clock>\n";EXP2.2_290421-10023-1;59.951;1.0.0.369;1;Chronos;2124611688;Full;3.0.3.80;3.0.3.80;09-14-2013;14/09/2013 08:47;10:47:43;3.0.3.82;2;Chronos;;2;1;2;TESTVV;Generalbloc;;;;pretest;Chronos;54;1;VV_110521/885.png;3;1;54;-15;blocVVstim;listVVTrial;;;;Chronos;0;;0;1;362087;200;;0;0;1;1;Chronos;0;0;362287;300;1;321;362608;1;1;Chronos;1;0;362587;0;1;21;362608;;;;;;;;;;;;;;;;;;;
EXP2.2_290421;10023;1;Chronos;<ChronosDeviceInfo><FriendlyName>MyChronos</FriendlyName><DeviceIndex>1</DeviceIndex><SerialNumber>CHR-04301-1186</SerialNumber><EBNVersion>3.0.3.80</EBNVersion><FirmwareVersion>1.33</FirmwareVersion><APIVersion>1.33</APIVersion><USBHostControllerVersion>2.0</USBHostControllerVersion><USBConnectionRoute>USB#ROOT_HUB20#4&f63975&0#{f18a0e88-c30c-11d0-8815-00a0c906bed8} + USB#VID_8087&PID_0024#5&365d106a&0&1#{f18a0e88-c30c-11d0-8815-00a0c906bed8}(1) + VID_2266&PID_0007(2)</USBConnectionRoute></ChronosDeviceInfo>;"<?xml version=""1.0""?>\n<Clock xmlns:dt=""urn:schemas-microsoft-com:datatypes""><Description dt:dt=""string"">E-Prime Primary Realtime Clock</Description><StartTime><Timestamp dt:dt=""int"">0</Timestamp><DateUtc dt:dt=""string"">2013-09-14T08:47:42Z</DateUtc></StartTime><FrequencyChanges><FrequencyChange><Frequency dt:dt=""r8"">3312832</Frequency><Timestamp dt:dt=""r8"">607714425654</Timestamp><Current dt:dt=""r8"">0</Current><DateUtc dt:dt=""string"">2013-09-14T08:47:42Z</DateUtc></FrequencyChange></FrequencyChanges></Clock>\n";EXP2.2_290421-10023-1;59.951;1.0.0.369;1;Chronos;2124611688;Full;3.0.3.80;3.0.3.80;09-14-2013;14/09/2013 08:47;10:47:43;3.0.3.82;2;Chronos;;2;1;2;TESTVV;Generalbloc;;;;pretest;Chronos;55;1;VV_110521/875.png;1;1;55;-25;blocVVstim;listVVTrial;;;;Chronos;0;;0;1;364139;200;;0;0;1;1;Chronos;0;0;364339;300;1;565;364904;1;1;Chronos;0;0;364639;0;1;265;364904;;;;;;;;;;;;;;;;;;;
