ExperimentName;Subject;Session;calibrage.DEVICE[Session];Chronos.BoxInfo;Clock.Information;DataFile.Basename;Display.RefreshRate;ExperimentVersion;Group;Hello.DEVICE;RandomSeed;RuntimeCapabilities;RuntimeVersion;RuntimeVersionExpected;SessionDate;SessionStartDateTimeUtc;SessionTime;StudioVersion;Block;calibrage.DEVICE[Block];EndTraining.DEVICE;Generalbloc;Generalbloc.Cycle;Generalbloc.Sample;Procedure[Block];Running[Block];TextDisplay1.DEVICE;TextDisplay2.DEVICE;TextTraining.DEVICE;time;VVInst.DEVICE[Block];Trial;correct;image;listVVTrial;listVVTrial.Cycle;listVVTrial.Sample;offset;Procedure[Trial];Running[Trial];SpatialTaskTraining;SpatialTaskTraining.Cycle;SpatialTaskTraining.Sample;VVInst.DEVICE[Trial];vvstimnoresp.ACC;vvstimnoresp.CRESP;vvstimnoresp.DurationError;vvstimnoresp.OnsetDelay;vvstimnoresp.OnsetTime;vvstimnoresp.OnsetToOnsetTime;vvstimnoresp.RESP;vvstimnoresp.RT;vvstimnoresp.RTTime;vvstimresp1.ACC;vvstimresp1.CRESP;vvstimresp1.DEVICE;vvstimresp1.DurationError;vvstimresp1.OnsetDelay;vvstimresp1.OnsetTime;vvstimresp1.OnsetToOnsetTime;vvstimresp1.RESP;vvstimresp1.RT;vvstimresp1.RTTime;vvstimresp2.ACC;vvstimresp2.CRESP;vvstimresp2.DEVICE;vvstimresp2.DurationError;vvstimresp2.OnsetDelay;vvstimresp2.OnsetTime;vvstimresp2.OnsetToOnsetTime;vvstimresp2.RESP;vvstimresp2.RT;vvstimresp2.RTTime;SubTrial;LISTVVRANDOM1;LISTVVRANDOM1.Cycle;LISTVVRANDOM1.Sample;LISTVVRANDOM2;Procedure[SubTrial];Running[SubTrial];VVR;VVRANDOM;VVRANDOMRESP.ACC;VVRANDOMRESP.CRESP;VVRANDOMRESP.DEVICE;VVRANDOMRESP.DurationError;VVRANDOMRESP.OnsetDelay;VVRANDOMRESP.OnsetTime;VVRANDOMRESP.OnsetToOnsetTime;VVRANDOMRESP.RESP;VVRANDOMRESP.RT;VVRANDOMRESP.RTTime
EXP2.2_290421;1025;1;Chronos;<ChronosDeviceInfo><FriendlyName>MyChronos</FriendlyName><DeviceIndex>1</DeviceIndex><SerialNumber>CHR-04301-1186</SerialNumber><EBNVersion>3.0.3.80</EBNVersion><FirmwareVersion>1.33</FirmwareVersion><APIVersion>1.33</APIVersion><USBHostControllerVersion>2.0</USBHostControllerVersion><USBConnectionRoute>USB#ROOT_HUB20#4&f63975&0#{f18a0e88-c30c-11d0-8815-00a0c906bed8} + USB#VID_8087&PID_0024#5&365d106a&0&1#{f18a0e88-c30c-11d0-8815-00a0c906bed8}(1) + VID_2266&PID_0007(2)</USBConnectionRoute></ChronosDeviceInfo>;"<?xml version=""1.0""?>\n<Clock xmlns:dt=""urn:schemas-microsoft-com:datatypes""><Description dt:dt=""string"">E-Prime Primary Realtime Clock</Description><StartTime><Timestamp dt:dt=""int"">0</Timestamp><DateUtc dt:dt=""string"">2013-09-14T12:44:40Z</DateUtc></StartTime><FrequencyChanges><FrequencyChange><Frequency dt:dt=""r8"">3312832</Frequency><Timestamp dt:dt=""r8"">654813166601</Timestamp><Current dt:dt=""r8"">0</Current><DateUtc dt:dt=""string"">2013-09-14T12:44:40Z</DateUtc></FrequencyChange></FrequencyChanges></Clock>\n";EXP2.2_290421-1025-1;59.951;1.0.0.349;1;Chronos;1978712956;Full;3.0.3.80;3.0.3.80;09-14-2013;14/09/2013 12:44;14:44:40;3.0.3.82;1;Chronos;Chronos;1;1;1;Training;Generalbloc;;;Chronos;pretest;;1;;;;;;;TRAININGVV;SpatialTaskTraining;1;1;1;Chronos;;;;;;;;;;;;;;;;;;;;;;;;;;;;;;1;1;1;1;1;blocVVstimTraining;LISTVVRANDOM1;VV_290421/875.png;VV_290421/880.png;0;;Chronos;-999999;1;449518;0;1;958;450476
EXP2.2_290421;1025;1;Chronos;<ChronosDeviceInfo><FriendlyName>MyChronos</FriendlyName><DeviceIndex>1</DeviceIndex><SerialNumber>CHR-04301-1186</SerialNumber><EBNVersion>3.0.3.80</EBNVersion><FirmwareVersion>1.33</FirmwareVersion><APIVersion>1.33</APIVersion><USBHostControllerVersion>2.0</USBHostControllerVersion><USBConnectionRoute>USB#ROOT_HUB20#4&f63975&0#{f18a0e88-c30c-11d0-8815-00a0c906bed8} + USB#VID_8087&PID_0024#5&365d106a&0&1#{f18a0e88-c30c-11d0-8815-00a0c906bed8}(1) + VID_2266&PID_0007(2)</USBConnectionRoute></ChronosDeviceInfo>;"<?xml version=""1.0""?>\n<Clock xmlns:dt=""urn:schemas-microsoft-com:datatypes""><Description dt:dt=""string"">E-Prime Primary Realtime Clock</Description><StartTime><Timestamp dt:dt=""int"">0</Timestamp><DateUtc dt:dt=""string"">2013-09-14T12:44:40Z</DateUtc></StartTime><FrequencyChanges><FrequencyChange><Frequency dt:dt=""r8"">3312832</Frequency><Timestamp dt:dt=""r8"">654813166601</Timestamp><Current dt:dt=""r8"">0</Current><DateUtc dt:dt=""string"">2013-09-14T12:44:40Z</DateUtc></FrequencyChange></FrequencyChanges></Clock>\n";EXP2.2_290421-1025-1;59.951;1.0.0.349;1;Chronos;1978712956;Full;3.0.3.80;3.0.3.80;09-14-2013;14/09/2013 12:44;14:44:40;3.0.3.82;1;Chronos;Chronos;1;1;1;Training;Generalbloc;;;Chronos;pretest;;1;;;;;;;TRAININGVV;SpatialTaskTraining;1;1;1;Chronos;;;;;;;;;;;;;;;;;;;;;;;;;;;;;;2;1;1;2;3;blocVVstimTraining;LISTVVRANDOM1;VV_290421/885.png;VV_290421/890.png;0;;Chronos;-999999;0;452503;0;1;1005;453508
EXP2.2_290421;1025;1;Chronos;<ChronosDeviceInfo><FriendlyName>MyChronos</FriendlyName><DeviceIndex>1</DeviceIndex><SerialNumber>CHR-04301-1186</SerialNumber><EBNVersion>3.0.3.80</EBNVersion><FirmwareVersion>1.33</FirmwareVersion><APIVersion>1.33</APIVersion><USBHostControllerVersion>2.0</USBHostControllerVersion><USBConnectionRoute>USB#ROOT_HUB20#4&f63975&0#{f18a0e88-c30c-11d0-8815-00a0c906bed8} + USB#VID_8087&PID_0024#5&365d106a&0&1#{f18a0e88-c30c-11d0-8815-00a0c906bed8}(1) + VID_2266&PID_0007(2)</USBConnectionRoute></ChronosDeviceInfo>;"<?xml version=""1.0""?>\n<Clock xmlns:dt=""urn:schemas-microsoft-com:datatypes""><Description dt:dt=""string"">E-Prime Primary Realtime Clock</Description><StartTime><Timestamp dt:dt=""int"">0</Timestamp><DateUtc dt:dt=""string"">2013-09-14T12:44:40Z</DateUtc></StartTime><FrequencyChanges><FrequencyChange><Frequency dt:dt=""r8"">3312832</Frequency><Timestamp dt:dt=""r8"">654813166601</Timestamp><Current dt:dt=""r8"">0</Current><DateUtc dt:dt=""string"">2013-09-14T12:44:40Z</DateUtc></FrequencyChange></FrequencyChanges></Clock>\n";EXP2.2_290421-1025-1;59.951;1.0.0.349;1;Chronos;1978712956;Full;3.0.3.80;3.0.3.80;09-14-2013;14/09/2013 12:44;14:44:40;3.0.3.82;1;Chronos;Chronos;1;1;1;Training;Generalbloc;;;Chronos;pretest;;1;;;;;;;TRAININGVV;SpatialTaskTraining;1;1;1;Chronos;;;;;;;;;;;;;;;;;;;;;;;;;;;;;;3;1;1;3;5;blocVVstimTraining;LISTVVRANDOM1;VV_290421/895.png;VV_290421/900.png;0;;Chronos;-999999;0;455539;0;5;917;456456
EXP2.2_290421;1025;1;Chronos;<ChronosDeviceInfo><FriendlyName>MyChronos</FriendlyName><DeviceIndex>1</DeviceIndex><SerialNumber>CHR-04301-1186</SerialNumber><EBNVersion>3.0.3.80</EBNVersion><FirmwareVersion>1.33</FirmwareVersion><APIVersion>1.33</APIVersion><USBHostControllerVersion>2.0</USBHostControllerVersion><USBConnectionRoute>USB#ROOT_HUB20#4&f63975&0#{f18a0e88-c30c-11d0-8815-00a0c906bed8} + USB#VID_8087&PID_0024#5&365d106a&0&1#{f18a0e88-c30c-11d0-8815-00a0c906bed8}(1) + VID_2266&PID_0007(2)</USBConnectionRoute></ChronosDeviceInfo>;"<?xml version=""1.0""?>\n<Clock xmlns:dt=""urn:schemas-microsoft-com:datatypes""><Description dt:dt=""string"">E-Prime Primary Realtime Clock</Description><StartTime><Timestamp dt:dt=""int"">0</Timestamp><DateUtc dt:dt=""string"">2013-09-14T12:44:40Z</DateUtc></StartTime><FrequencyChanges><FrequencyChange><Frequency dt:dt=""r8"">3312832</Frequency><Timestamp dt:dt=""r8"">654813166601</Timestamp><Current dt:dt=""r8"">0</Current><DateUtc dt:dt=""string"">2013-09-14T12:44:40Z</DateUtc></FrequencyChange></FrequencyChanges></Clock>\n";EXP2.2_290421-1025-1;59.951;1.0.0.349;1;Chronos;1978712956;Full;3.0.3.80;3.0.3.80;09-14-2013;14/09/2013 12:44;14:44:40;3.0.3.82;1;Chronos;Chronos;1;1;1;Training;Generalbloc;;;Chronos;pretest;;1;;;;;;;TRAININGVV;SpatialTaskTraining;1;1;1;Chronos;;;;;;;;;;;;;;;;;;;;;;;;;;;;;;4;1;1;4;7;blocVVstimTraining;LISTVVRANDOM1;VV_290421/905.png;VV_290421/910.png;0;;Chronos;-999999;1;458492;0;5;661;459153
EXP2.2_290421;1025;1;Chronos;<ChronosDeviceInfo><FriendlyName>MyChronos</FriendlyName><DeviceIndex>1</DeviceIndex><SerialNumber>CHR-04301-1186</SerialNumber><EBNVersion>3.0.3.80</EBNVersion><FirmwareVersion>1.33</FirmwareVersion><APIVersion>1.33</APIVersion><USBHostControllerVersion>2.0</USBHostControllerVersion><USBConnectionRoute>USB#ROOT_HUB20#4&f63975&0#{f18a0e88-c30c-11d0-8815-00a0c906bed8} + USB#VID_8087&PID_0024#5&365d106a&0&1#{f18a0e88-c30c-11d0-8815-00a0c906bed8}(1) + VID_2266&PID_0007(2)</USBConnectionRoute></ChronosDeviceInfo>;"<?xml version=""1.0""?>\n<Clock xmlns:dt=""urn:schemas-microsoft-com:datatypes""><Description dt:dt=""string"">E-Prime Primary Realtime Clock</Description><StartTime><Timestamp dt:dt=""int"">0</Timestamp><DateUtc dt:dt=""string"">2013-09-14T12:44:40Z</DateUtc></StartTime><FrequencyChanges><FrequencyChange><Frequency dt:dt=""r8"">3312832</Frequency><Timestamp dt:dt=""r8"">654813166601</Timestamp><Current dt:dt=""r8"">0</Current><DateUtc dt:dt=""string"">2013-09-14T12:44:40Z</DateUtc></FrequencyChange></FrequencyChanges></Clock>\n";EXP2.2_290421-1025-1;59.951;1.0.0.349;1;Chronos;1978712956;Full;3.0.3.80;3.0.3.80;09-14-2013;14/09/2013 12:44;14:44:40;3.0.3.82;1;Chronos;Chronos;1;1;1;Training;Generalbloc;;;Chronos;pretest;;1;;;;;;;TRAININGVV;SpatialTaskTraining;1;1;1;Chronos;;;;;;;;;;;;;;;;;;;;;;;;;;;;;;5;1;1;5;9;blocVVstimTraining;LISTVVRANDOM1;VV_290421/915.png;VV_290421/920.png;0;;Chronos;-999999;0;461177;0;5;305;461482
EXP2.2_290421;1025;1;Chronos;<ChronosDeviceInfo><FriendlyName>MyChronos</FriendlyName><DeviceIndex>1</DeviceIndex><SerialNumber>CHR-04301-1186</SerialNumber><EBNVersion>3.0.3.80</EBNVersion><FirmwareVersion>1.33</FirmwareVersion><APIVersion>1.33</APIVersion><USBHostControllerVersion>2.0</USBHostControllerVersion><USBConnectionRoute>USB#ROOT_HUB20#4&f63975&0#{f18a0e88-c30c-11d0-8815-00a0c906bed8} + USB#VID_8087&PID_0024#5&365d106a&0&1#{f18a0e88-c30c-11d0-8815-00a0c906bed8}(1) + VID_2266&PID_0007(2)</USBConnectionRoute></ChronosDeviceInfo>;"<?xml version=""1.0""?>\n<Clock xmlns:dt=""urn:schemas-microsoft-com:datatypes""><Description dt:dt=""string"">E-Prime Primary Realtime Clock</Description><StartTime><Timestamp dt:dt=""int"">0</Timestamp><DateUtc dt:dt=""string"">2013-09-14T12:44:40Z</DateUtc></StartTime><FrequencyChanges><FrequencyChange><Frequency dt:dt=""r8"">3312832</Frequency><Timestamp dt:dt=""r8"">654813166601</Timestamp><Current dt:dt=""r8"">0</Current><DateUtc dt:dt=""string"">2013-09-14T12:44:40Z</DateUtc></FrequencyChange></FrequencyChanges></Clock>\n";EXP2.2_290421-1025-1;59.951;1.0.0.349;1;Chronos;1978712956;Full;3.0.3.80;3.0.3.80;09-14-2013;14/09/2013 12:44;14:44:40;3.0.3.82;1;Chronos;Chronos;1;1;1;Training;Generalbloc;;;Chronos;pretest;;1;;;;;;;TRAININGVV;SpatialTaskTraining;1;1;1;Chronos;;;;;;;;;;;;;;;;;;;;;;;;;;;;;;6;1;1;6;11;blocVVstimTraining;LISTVVRANDOM1;VV_290421/925.png;VV_290421/875.png;0;;Chronos;-999999;0;463512;0;1;5004;468516
EXP2.2_290421;1025;1;Chronos;<ChronosDeviceInfo><FriendlyName>MyChronos</FriendlyName><DeviceIndex>1</DeviceIndex><SerialNumber>CHR-04301-1186</SerialNumber><EBNVersion>3.0.3.80</EBNVersion><FirmwareVersion>1.33</FirmwareVersion><APIVersion>1.33</APIVersion><USBHostControllerVersion>2.0</USBHostControllerVersion><USBConnectionRoute>USB#ROOT_HUB20#4&f63975&0#{f18a0e88-c30c-11d0-8815-00a0c906bed8} + USB#VID_8087&PID_0024#5&365d106a&0&1#{f18a0e88-c30c-11d0-8815-00a0c906bed8}(1) + VID_2266&PID_0007(2)</USBConnectionRoute></ChronosDeviceInfo>;"<?xml version=""1.0""?>\n<Clock xmlns:dt=""urn:schemas-microsoft-com:datatypes""><Description dt:dt=""string"">E-Prime Primary Realtime Clock</Description><StartTime><Timestamp dt:dt=""int"">0</Timestamp><DateUtc dt:dt=""string"">2013-09-14T12:44:40Z</DateUtc></StartTime><FrequencyChanges><FrequencyChange><Frequency dt:dt=""r8"">3312832</Frequency><Timestamp dt:dt=""r8"">654813166601</Timestamp><Current dt:dt=""r8"">0</Current><DateUtc dt:dt=""string"">2013-09-14T12:44:40Z</DateUtc></FrequencyChange></FrequencyChanges></Clock>\n";EXP2.2_290421-1025-1;59.951;1.0.0.349;1;Chronos;1978712956;Full;3.0.3.80;3.0.3.80;09-14-2013;14/09/2013 12:44;14:44:40;3.0.3.82;1;Chronos;Chronos;1;1;1;Training;Generalbloc;;;Chronos;pretest;;1;;;;;;;TRAININGVV;SpatialTaskTraining;1;1;1;Chronos;;;;;;;;;;;;;;;;;;;;;;;;;;;;;;7;1;1;7;2;blocVVstimTraining;LISTVVRANDOM1;VV_290421/880.png;VV_290421/885.png;0;;Chronos;-999999;1;470552;0;1;581;471133
EXP2.2_290421;1025;1;Chronos;<ChronosDeviceInfo><FriendlyName>MyChronos</FriendlyName><DeviceIndex>1</DeviceIndex><SerialNumber>CHR-04301-1186</SerialNumber><EBNVersion>3.0.3.80</EBNVersion><FirmwareVersion>1.33</FirmwareVersion><APIVersion>1.33</APIVersion><USBHostControllerVersion>2.0</USBHostControllerVersion><USBConnectionRoute>USB#ROOT_HUB20#4&f63975&0#{f18a0e88-c30c-11d0-8815-00a0c906bed8} + USB#VID_8087&PID_0024#5&365d106a&0&1#{f18a0e88-c30c-11d0-8815-00a0c906bed8}(1) + VID_2266&PID_0007(2)</USBConnectionRoute></ChronosDeviceInfo>;"<?xml version=""1.0""?>\n<Clock xmlns:dt=""urn:schemas-microsoft-com:datatypes""><Description dt:dt=""string"">E-Prime Primary Realtime Clock</Description><StartTime><Timestamp dt:dt=""int"">0</Timestamp><DateUtc dt:dt=""string"">2013-09-14T12:44:40Z</DateUtc></StartTime><FrequencyChanges><FrequencyChange><Frequency dt:dt=""r8"">3312832</Frequency><Timestamp dt:dt=""r8"">654813166601</Timestamp><Current dt:dt=""r8"">0</Current><DateUtc dt:dt=""string"">2013-09-14T12:44:40Z</DateUtc></FrequencyChange></FrequencyChanges></Clock>\n";EXP2.2_290421-1025-1;59.951;1.0.0.349;1;Chronos;1978712956;Full;3.0.3.80;3.0.3.80;09-14-2013;14/09/2013 12:44;14:44:40;3.0.3.82;1;Chronos;Chronos;1;1;1;Training;Generalbloc;;;Chronos;pretest;;1;;;;;;;TRAININGVV;SpatialTaskTraining;1;1;1;Chronos;;;;;;;;;;;;;;;;;;;;;;;;;;;;;;8;1;1;8;4;blocVVstimTraining;LISTVVRANDOM1;VV_290421/890.png;VV_290421/895.png;0;;Chronos;-999999;0;473170;0;1;368;473538
EXP2.2_290421;1025;1;Chronos;<ChronosDeviceInfo><FriendlyName>MyChronos</FriendlyName><DeviceIndex>1</DeviceIndex><SerialNumber>CHR-04301-1186</SerialNumber><EBNVersion>3.0.3.80</EBNVersion><FirmwareVersion>1.33</FirmwareVersion><APIVersion>1.33</APIVersion><USBHostControllerVersion>2.0</USBHostControllerVersion><USBConnectionRoute>USB#ROOT_HUB20#4&f63975&0#{f18a0e88-c30c-11d0-8815-00a0c906bed8} + USB#VID_8087&PID_0024#5&365d106a&0&1#{f18a0e88-c30c-11d0-8815-00a0c906bed8}(1) + VID_2266&PID_0007(2)</USBConnectionRoute></ChronosDeviceInfo>;"<?xml version=""1.0""?>\n<Clock xmlns:dt=""urn:schemas-microsoft-com:datatypes""><Description dt:dt=""string"">E-Prime Primary Realtime Clock</Description><StartTime><Timestamp dt:dt=""int"">0</Timestamp><DateUtc dt:dt=""string"">2013-09-14T12:44:40Z</DateUtc></StartTime><FrequencyChanges><FrequencyChange><Frequency dt:dt=""r8"">3312832</Frequency><Timestamp dt:dt=""r8"">654813166601</Timestamp><Current dt:dt=""r8"">0</Current><DateUtc dt:dt=""string"">2013-09-14T12:44:40Z</DateUtc></FrequencyChange></FrequencyChanges></Clock>\n";EXP2.2_290421-1025-1;59.951;1.0.0.349;1;Chronos;1978712956;Full;3.0.3.80;3.0.3.80;09-14-2013;14/09/2013 12:44;14:44:40;3.0.3.82;1;Chronos;Chronos;1;1;1;Training;Generalbloc;;;Chronos;pretest;;1;;;;;;;TRAININGVV;SpatialTaskTraining;1;1;1;Chronos;;;;;;;;;;;;;;;;;;;;;;;;;;;;;;9;1;1;9;6;blocVVstimTraining;LISTVVRANDOM1;VV_290421/900.png;VV_290421/905.png;0;;Chronos;-999999;0;475572;0;5;480;476052
EXP2.2_290421;1025;1;Chronos;<ChronosDeviceInfo><FriendlyName>MyChronos</FriendlyName><DeviceIndex>1</DeviceIndex><SerialNumber>CHR-04301-1186</SerialNumber><EBNVersion>3.0.3.80</EBNVersion><FirmwareVersion>1.33</FirmwareVersion><APIVersion>1.33</APIVersion><USBHostControllerVersion>2.0</USBHostControllerVersion><USBConnectionRoute>USB#ROOT_HUB20#4&f63975&0#{f18a0e88-c30c-11d0-8815-00a0c906bed8} + USB#VID_8087&PID_0024#5&365d106a&0&1#{f18a0e88-c30c-11d0-8815-00a0c906bed8}(1) + VID_2266&PID_0007(2)</USBConnectionRoute></ChronosDeviceInfo>;"<?xml version=""1.0""?>\n<Clock xmlns:dt=""urn:schemas-microsoft-com:datatypes""><Description dt:dt=""string"">E-Prime Primary Realtime Clock</Description><StartTime><Timestamp dt:dt=""int"">0</Timestamp><DateUtc dt:dt=""string"">2013-09-14T12:44:40Z</DateUtc></StartTime><FrequencyChanges><FrequencyChange><Frequency dt:dt=""r8"">3312832</Frequency><Timestamp dt:dt=""r8"">654813166601</Timestamp><Current dt:dt=""r8"">0</Current><DateUtc dt:dt=""string"">2013-09-14T12:44:40Z</DateUtc></FrequencyChange></FrequencyChanges></Clock>\n";EXP2.2_290421-1025-1;59.951;1.0.0.349;1;Chronos;1978712956;Full;3.0.3.80;3.0.3.80;09-14-2013;14/09/2013 12:44;14:44:40;3.0.3.82;1;Chronos;Chronos;1;1;1;Training;Generalbloc;;;Chronos;pretest;;1;;;;;;;TRAININGVV;SpatialTaskTraining;1;1;1;Chronos;;;;;;;;;;;;;;;;;;;;;;;;;;;;;;10;1;1;10;8;blocVVstimTraining;LISTVVRANDOM1;VV_290421/910.png;VV_290421/915.png;0;;Chronos;-999999;1;478075;0;5;395;478470
EXP2.2_290421;1025;1;Chronos;<ChronosDeviceInfo><FriendlyName>MyChronos</FriendlyName><DeviceIndex>1</DeviceIndex><SerialNumber>CHR-04301-1186</SerialNumber><EBNVersion>3.0.3.80</EBNVersion><FirmwareVersion>1.33</FirmwareVersion><APIVersion>1.33</APIVersion><USBHostControllerVersion>2.0</USBHostControllerVersion><USBConnectionRoute>USB#ROOT_HUB20#4&f63975&0#{f18a0e88-c30c-11d0-8815-00a0c906bed8} + USB#VID_8087&PID_0024#5&365d106a&0&1#{f18a0e88-c30c-11d0-8815-00a0c906bed8}(1) + VID_2266&PID_0007(2)</USBConnectionRoute></ChronosDeviceInfo>;"<?xml version=""1.0""?>\n<Clock xmlns:dt=""urn:schemas-microsoft-com:datatypes""><Description dt:dt=""string"">E-Prime Primary Realtime Clock</Description><StartTime><Timestamp dt:dt=""int"">0</Timestamp><DateUtc dt:dt=""string"">2013-09-14T12:44:40Z</DateUtc></StartTime><FrequencyChanges><FrequencyChange><Frequency dt:dt=""r8"">3312832</Frequency><Timestamp dt:dt=""r8"">654813166601</Timestamp><Current dt:dt=""r8"">0</Current><DateUtc dt:dt=""string"">2013-09-14T12:44:40Z</DateUtc></FrequencyChange></FrequencyChanges></Clock>\n";EXP2.2_290421-1025-1;59.951;1.0.0.349;1;Chronos;1978712956;Full;3.0.3.80;3.0.3.80;09-14-2013;14/09/2013 12:44;14:44:40;3.0.3.82;1;Chronos;Chronos;1;1;1;Training;Generalbloc;;;Chronos;pretest;;1;;;;;;;TRAININGVV;SpatialTaskTraining;1;1;1;Chronos;;;;;;;;;;;;;;;;;;;;;;;;;;;;;;11;1;1;11;10;blocVVstimTraining;LISTVVRANDOM1;VV_290421/920.png;VV_290421/925.png;0;;Chronos;-999999;0;480493;0;5;356;480849
EXP2.2_290421;1025;1;Chronos;<ChronosDeviceInfo><FriendlyName>MyChronos</FriendlyName><DeviceIndex>1</DeviceIndex><SerialNumber>CHR-04301-1186</SerialNumber><EBNVersion>3.0.3.80</EBNVersion><FirmwareVersion>1.33</FirmwareVersion><APIVersion>1.33</APIVersion><USBHostControllerVersion>2.0</USBHostControllerVersion><USBConnectionRoute>USB#ROOT_HUB20#4&f63975&0#{f18a0e88-c30c-11d0-8815-00a0c906bed8} + USB#VID_8087&PID_0024#5&365d106a&0&1#{f18a0e88-c30c-11d0-8815-00a0c906bed8}(1) + VID_2266&PID_0007(2)</USBConnectionRoute></ChronosDeviceInfo>;"<?xml version=""1.0""?>\n<Clock xmlns:dt=""urn:schemas-microsoft-com:datatypes""><Description dt:dt=""string"">E-Prime Primary Realtime Clock</Description><StartTime><Timestamp dt:dt=""int"">0</Timestamp><DateUtc dt:dt=""string"">2013-09-14T12:44:40Z</DateUtc></StartTime><FrequencyChanges><FrequencyChange><Frequency dt:dt=""r8"">3312832</Frequency><Timestamp dt:dt=""r8"">654813166601</Timestamp><Current dt:dt=""r8"">0</Current><DateUtc dt:dt=""string"">2013-09-14T12:44:40Z</DateUtc></FrequencyChange></FrequencyChanges></Clock>\n";EXP2.2_290421-1025-1;59.951;1.0.0.349;1;Chronos;1978712956;Full;3.0.3.80;3.0.3.80;09-14-2013;14/09/2013 12:44;14:44:40;3.0.3.82;1;Chronos;Chronos;1;1;1;Training;Generalbloc;;;Chronos;pretest;;1;;;;;;;TRAININGVV;SpatialTaskTraining;1;1;1;Chronos;;;;;;;;;;;;;;;;;;;;;;;;;;;;;;12;1;1;12;1;blocVVstimTraining;LISTVVRANDOM1;VV_290421/875.png;VV_290421/880.png;0;;Chronos;-999999;1;482879;0;1;247;483126
EXP2.2_290421;1025;1;Chronos;<ChronosDeviceInfo><FriendlyName>MyChronos</FriendlyName><DeviceIndex>1</DeviceIndex><SerialNumber>CHR-04301-1186</SerialNumber><EBNVersion>3.0.3.80</EBNVersion><FirmwareVersion>1.33</FirmwareVersion><APIVersion>1.33</APIVersion><USBHostControllerVersion>2.0</USBHostControllerVersion><USBConnectionRoute>USB#ROOT_HUB20#4&f63975&0#{f18a0e88-c30c-11d0-8815-00a0c906bed8} + USB#VID_8087&PID_0024#5&365d106a&0&1#{f18a0e88-c30c-11d0-8815-00a0c906bed8}(1) + VID_2266&PID_0007(2)</USBConnectionRoute></ChronosDeviceInfo>;"<?xml version=""1.0""?>\n<Clock xmlns:dt=""urn:schemas-microsoft-com:datatypes""><Description dt:dt=""string"">E-Prime Primary Realtime Clock</Description><StartTime><Timestamp dt:dt=""int"">0</Timestamp><DateUtc dt:dt=""string"">2013-09-14T12:44:40Z</DateUtc></StartTime><FrequencyChanges><FrequencyChange><Frequency dt:dt=""r8"">3312832</Frequency><Timestamp dt:dt=""r8"">654813166601</Timestamp><Current dt:dt=""r8"">0</Current><DateUtc dt:dt=""string"">2013-09-14T12:44:40Z</DateUtc></FrequencyChange></FrequencyChanges></Clock>\n";EXP2.2_290421-1025-1;59.951;1.0.0.349;1;Chronos;1978712956;Full;3.0.3.80;3.0.3.80;09-14-2013;14/09/2013 12:44;14:44:40;3.0.3.82;2;Chronos;;2;1;2;TESTVV;Generalbloc;;;;pretest;Chronos;1;5;VV_290421/910.png;8;1;1;10;blocVVstim;listVVTrial;;;;Chronos;0;;0;1;562111;200;;0;0;1;5;Chronos;0;0;562311;0;5;282;562593;0;;;-999999;0;0;0;;0;0;;;;;;;;;;;;;;;;;;;
EXP2.2_290421;1025;1;Chronos;<ChronosDeviceInfo><FriendlyName>MyChronos</FriendlyName><DeviceIndex>1</DeviceIndex><SerialNumber>CHR-04301-1186</SerialNumber><EBNVersion>3.0.3.80</EBNVersion><FirmwareVersion>1.33</FirmwareVersion><APIVersion>1.33</APIVersion><USBHostControllerVersion>2.0</USBHostControllerVersion><USBConnectionRoute>USB#ROOT_HUB20#4&f63975&0#{f18a0e88-c30c-11d0-8815-00a0c906bed8} + USB#VID_8087&PID_0024#5&365d106a&0&1#{f18a0e88-c30c-11d0-8815-00a0c906bed8}(1) + VID_2266&PID_0007(2)</USBConnectionRoute></ChronosDeviceInfo>;"<?xml version=""1.0""?>\n<Clock xmlns:dt=""urn:schemas-microsoft-com:datatypes""><Description dt:dt=""string"">E-Prime Primary Realtime Clock</Description><StartTime><Timestamp dt:dt=""int"">0</Timestamp><DateUtc dt:dt=""string"">2013-09-14T12:44:40Z</DateUtc></StartTime><FrequencyChanges><FrequencyChange><Frequency dt:dt=""r8"">3312832</Frequency><Timestamp dt:dt=""r8"">654813166601</Timestamp><Current dt:dt=""r8"">0</Current><DateUtc dt:dt=""string"">2013-09-14T12:44:40Z</DateUtc></FrequencyChange></FrequencyChanges></Clock>\n";EXP2.2_290421-1025-1;59.951;1.0.0.349;1;Chronos;1978712956;Full;3.0.3.80;3.0.3.80;09-14-2013;14/09/2013 12:44;14:44:40;3.0.3.82;2;Chronos;;2;1;2;TESTVV;Generalbloc;;;;pretest;Chronos;2;1;VV_290421/895.png;5;1;2;-5;blocVVstim;listVVTrial;;;;Chronos;0;;1;1;564112;201;;0;0;1;1;Chronos;0;1;564313;300;1;666;564979;1;1;Chronos;0;0;564613;0;1;366;564979;;;;;;;;;;;;;;;;;;;
EXP2.2_290421;1025;1;Chronos;<ChronosDeviceInfo><FriendlyName>MyChronos</FriendlyName><DeviceIndex>1</DeviceIndex><SerialNumber>CHR-04301-1186</SerialNumber><EBNVersion>3.0.3.80</EBNVersion><FirmwareVersion>1.33</FirmwareVersion><APIVersion>1.33</APIVersion><USBHostControllerVersion>2.0</USBHostControllerVersion><USBConnectionRoute>USB#ROOT_HUB20#4&f63975&0#{f18a0e88-c30c-11d0-8815-00a0c906bed8} + USB#VID_8087&PID_0024#5&365d106a&0&1#{f18a0e88-c30c-11d0-8815-00a0c906bed8}(1) + VID_2266&PID_0007(2)</USBConnectionRoute></ChronosDeviceInfo>;"<?xml version=""1.0""?>\n<Clock xmlns:dt=""urn:schemas-microsoft-com:datatypes""><Description dt:dt=""string"">E-Prime Primary Realtime Clock</Description><StartTime><Timestamp dt:dt=""int"">0</Timestamp><DateUtc dt:dt=""string"">2013-09-14T12:44:40Z</DateUtc></StartTime><FrequencyChanges><FrequencyChange><Frequency dt:dt=""r8"">3312832</Frequency><Timestamp dt:dt=""r8"">654813166601</Timestamp><Current dt:dt=""r8"">0</Current><DateUtc dt:dt=""string"">2013-09-14T12:44:40Z</DateUtc></FrequencyChange></FrequencyChanges></Clock>\n";EXP2.2_290421-1025-1;59.951;1.0.0.349;1;Chronos;1978712956;Full;3.0.3.80;3.0.3.80;09-14-2013;14/09/2013 12:44;14:44:40;3.0.3.82;2;Chronos;;2;1;2;TESTVV;Generalbloc;;;;pretest;Chronos;3;5;VV_290421/925.png;11;1;3;25;blocVVstim;listVVTrial;;;;Chronos;0;;0;1;566514;201;;0;0;1;5;Chronos;0;1;566715;0;5;186;566901;0;;;-999999;0;0;0;;0;0;;;;;;;;;;;;;;;;;;;
EXP2.2_290421;1025;1;Chronos;<ChronosDeviceInfo><FriendlyName>MyChronos</FriendlyName><DeviceIndex>1</DeviceIndex><SerialNumber>CHR-04301-1186</SerialNumber><EBNVersion>3.0.3.80</EBNVersion><FirmwareVersion>1.33</FirmwareVersion><APIVersion>1.33</APIVersion><USBHostControllerVersion>2.0</USBHostControllerVersion><USBConnectionRoute>USB#ROOT_HUB20#4&f63975&0#{f18a0e88-c30c-11d0-8815-00a0c906bed8} + USB#VID_8087&PID_0024#5&365d106a&0&1#{f18a0e88-c30c-11d0-8815-00a0c906bed8}(1) + VID_2266&PID_0007(2)</USBConnectionRoute></ChronosDeviceInfo>;"<?xml version=""1.0""?>\n<Clock xmlns:dt=""urn:schemas-microsoft-com:datatypes""><Description dt:dt=""string"">E-Prime Primary Realtime Clock</Description><StartTime><Timestamp dt:dt=""int"">0</Timestamp><DateUtc dt:dt=""string"">2013-09-14T12:44:40Z</DateUtc></StartTime><FrequencyChanges><FrequencyChange><Frequency dt:dt=""r8"">3312832</Frequency><Timestamp dt:dt=""r8"">654813166601</Timestamp><Current dt:dt=""r8"">0</Current><DateUtc dt:dt=""string"">2013-09-14T12:44:40Z</DateUtc></FrequencyChange></FrequencyChanges></Clock>\n";EXP2.2_290421-1025-1;59.951;1.0.0.349;1;Chronos;1978712956;Full;3.0.3.80;3.0.3.80;09-14-2013;14/09/2013 12:44;14:44:40;3.0.3.82;2;Chronos;;2;1;2;TESTVV;Generalbloc;;;;pretest;Chronos;4;5;VV_290421/920.png;10;1;4;20;blocVVstim;listVVTrial;;;;Chronos;0;;0;2;568433;200;;0;0;1;5;Chronos;0;0;568633;300;5;314;568947;1;5;Chronos;0;0;568933;0;5;14;568947;;;;;;;;;;;;;;;;;;;
EXP2.2_290421;1025;1;Chronos;<ChronosDeviceInfo><FriendlyName>MyChronos</FriendlyName><DeviceIndex>1</DeviceIndex><SerialNumber>CHR-04301-1186</SerialNumber><EBNVersion>3.0.3.80</EBNVersion><FirmwareVersion>1.33</FirmwareVersion><APIVersion>1.33</APIVersion><USBHostControllerVersion>2.0</USBHostControllerVersion><USBConnectionRoute>USB#ROOT_HUB20#4&f63975&0#{f18a0e88-c30c-11d0-8815-00a0c906bed8} + USB#VID_8087&PID_0024#5&365d106a&0&1#{f18a0e88-c30c-11d0-8815-00a0c906bed8}(1) + VID_2266&PID_0007(2)</USBConnectionRoute></ChronosDeviceInfo>;"<?xml version=""1.0""?>\n<Clock xmlns:dt=""urn:schemas-microsoft-com:datatypes""><Description dt:dt=""string"">E-Prime Primary Realtime Clock</Description><StartTime><Timestamp dt:dt=""int"">0</Timestamp><DateUtc dt:dt=""string"">2013-09-14T12:44:40Z</DateUtc></StartTime><FrequencyChanges><FrequencyChange><Frequency dt:dt=""r8"">3312832</Frequency><Timestamp dt:dt=""r8"">654813166601</Timestamp><Current dt:dt=""r8"">0</Current><DateUtc dt:dt=""string"">2013-09-14T12:44:40Z</DateUtc></FrequencyChange></FrequencyChanges></Clock>\n";EXP2.2_290421-1025-1;59.951;1.0.0.349;1;Chronos;1978712956;Full;3.0.3.80;3.0.3.80;09-14-2013;14/09/2013 12:44;14:44:40;3.0.3.82;2;Chronos;;2;1;2;TESTVV;Generalbloc;;;;pretest;Chronos;5;15;VV_290421/900.png;6;1;5;0;blocVVstim;listVVTrial;;;;Chronos;0;;0;2;570468;200;;0;0;0;15;Chronos;0;0;570668;0;1;135;570803;0;;;-999999;0;0;0;;0;0;;;;;;;;;;;;;;;;;;;
EXP2.2_290421;1025;1;Chronos;<ChronosDeviceInfo><FriendlyName>MyChronos</FriendlyName><DeviceIndex>1</DeviceIndex><SerialNumber>CHR-04301-1186</SerialNumber><EBNVersion>3.0.3.80</EBNVersion><FirmwareVersion>1.33</FirmwareVersion><APIVersion>1.33</APIVersion><USBHostControllerVersion>2.0</USBHostControllerVersion><USBConnectionRoute>USB#ROOT_HUB20#4&f63975&0#{f18a0e88-c30c-11d0-8815-00a0c906bed8} + USB#VID_8087&PID_0024#5&365d106a&0&1#{f18a0e88-c30c-11d0-8815-00a0c906bed8}(1) + VID_2266&PID_0007(2)</USBConnectionRoute></ChronosDeviceInfo>;"<?xml version=""1.0""?>\n<Clock xmlns:dt=""urn:schemas-microsoft-com:datatypes""><Description dt:dt=""string"">E-Prime Primary Realtime Clock</Description><StartTime><Timestamp dt:dt=""int"">0</Timestamp><DateUtc dt:dt=""string"">2013-09-14T12:44:40Z</DateUtc></StartTime><FrequencyChanges><FrequencyChange><Frequency dt:dt=""r8"">3312832</Frequency><Timestamp dt:dt=""r8"">654813166601</Timestamp><Current dt:dt=""r8"">0</Current><DateUtc dt:dt=""string"">2013-09-14T12:44:40Z</DateUtc></FrequencyChange></FrequencyChanges></Clock>\n";EXP2.2_290421-1025-1;59.951;1.0.0.349;1;Chronos;1978712956;Full;3.0.3.80;3.0.3.80;09-14-2013;14/09/2013 12:44;14:44:40;3.0.3.82;2;Chronos;;2;1;2;TESTVV;Generalbloc;;;;pretest;Chronos;6;1;VV_290421/885.png;3;1;6;-15;blocVVstim;listVVTrial;;;;Chronos;0;;0;1;572336;200;;0;0;1;1;Chronos;0;0;572536;300;1;447;572983;1;1;Chronos;0;0;572836;0;1;147;572983;;;;;;;;;;;;;;;;;;;
EXP2.2_290421;1025;1;Chronos;<ChronosDeviceInfo><FriendlyName>MyChronos</FriendlyName><DeviceIndex>1</DeviceIndex><SerialNumber>CHR-04301-1186</SerialNumber><EBNVersion>3.0.3.80</EBNVersion><FirmwareVersion>1.33</FirmwareVersion><APIVersion>1.33</APIVersion><USBHostControllerVersion>2.0</USBHostControllerVersion><USBConnectionRoute>USB#ROOT_HUB20#4&f63975&0#{f18a0e88-c30c-11d0-8815-00a0c906bed8} + USB#VID_8087&PID_0024#5&365d106a&0&1#{f18a0e88-c30c-11d0-8815-00a0c906bed8}(1) + VID_2266&PID_0007(2)</USBConnectionRoute></ChronosDeviceInfo>;"<?xml version=""1.0""?>\n<Clock xmlns:dt=""urn:schemas-microsoft-com:datatypes""><Description dt:dt=""string"">E-Prime Primary Realtime Clock</Description><StartTime><Timestamp dt:dt=""int"">0</Timestamp><DateUtc dt:dt=""string"">2013-09-14T12:44:40Z</DateUtc></StartTime><FrequencyChanges><FrequencyChange><Frequency dt:dt=""r8"">3312832</Frequency><Timestamp dt:dt=""r8"">654813166601</Timestamp><Current dt:dt=""r8"">0</Current><DateUtc dt:dt=""string"">2013-09-14T12:44:40Z</DateUtc></FrequencyChange></FrequencyChanges></Clock>\n";EXP2.2_290421-1025-1;59.951;1.0.0.349;1;Chronos;1978712956;Full;3.0.3.80;3.0.3.80;09-14-2013;14/09/2013 12:44;14:44:40;3.0.3.82;2;Chronos;;2;1;2;TESTVV;Generalbloc;;;;pretest;Chronos;7;5;VV_290421/905.png;7;1;7;5;blocVVstim;listVVTrial;;;;Chronos;0;;0;1;574521;200;;0;0;0;5;Chronos;0;0;574721;0;1;273;574994;0;;;-999999;0;0;0;;0;0;;;;;;;;;;;;;;;;;;;
EXP2.2_290421;1025;1;Chronos;<ChronosDeviceInfo><FriendlyName>MyChronos</FriendlyName><DeviceIndex>1</DeviceIndex><SerialNumber>CHR-04301-1186</SerialNumber><EBNVersion>3.0.3.80</EBNVersion><FirmwareVersion>1.33</FirmwareVersion><APIVersion>1.33</APIVersion><USBHostControllerVersion>2.0</USBHostControllerVersion><USBConnectionRoute>USB#ROOT_HUB20#4&f63975&0#{f18a0e88-c30c-11d0-8815-00a0c906bed8} + USB#VID_8087&PID_0024#5&365d106a&0&1#{f18a0e88-c30c-11d0-8815-00a0c906bed8}(1) + VID_2266&PID_0007(2)</USBConnectionRoute></ChronosDeviceInfo>;"<?xml version=""1.0""?>\n<Clock xmlns:dt=""urn:schemas-microsoft-com:datatypes""><Description dt:dt=""string"">E-Prime Primary Realtime Clock</Description><StartTime><Timestamp dt:dt=""int"">0</Timestamp><DateUtc dt:dt=""string"">2013-09-14T12:44:40Z</DateUtc></StartTime><FrequencyChanges><FrequencyChange><Frequency dt:dt=""r8"">3312832</Frequency><Timestamp dt:dt=""r8"">654813166601</Timestamp><Current dt:dt=""r8"">0</Current><DateUtc dt:dt=""string"">2013-09-14T12:44:40Z</DateUtc></FrequencyChange></FrequencyChanges></Clock>\n";EXP2.2_290421-1025-1;59.951;1.0.0.349;1;Chronos;1978712956;Full;3.0.3.80;3.0.3.80;09-14-2013;14/09/2013 12:44;14:44:40;3.0.3.82;2;Chronos;;2;1;2;TESTVV;Generalbloc;;;;pretest;Chronos;8;1;VV_290421/880.png;2;1;8;-20;blocVVstim;listVVTrial;;;;Chronos;0;;0;2;576523;200;;0;0;1;1;Chronos;0;0;576723;0;1;149;576872;0;;;-999999;0;0;0;;0;0;;;;;;;;;;;;;;;;;;;
EXP2.2_290421;1025;1;Chronos;<ChronosDeviceInfo><FriendlyName>MyChronos</FriendlyName><DeviceIndex>1</DeviceIndex><SerialNumber>CHR-04301-1186</SerialNumber><EBNVersion>3.0.3.80</EBNVersion><FirmwareVersion>1.33</FirmwareVersion><APIVersion>1.33</APIVersion><USBHostControllerVersion>2.0</USBHostControllerVersion><USBConnectionRoute>USB#ROOT_HUB20#4&f63975&0#{f18a0e88-c30c-11d0-8815-00a0c906bed8} + USB#VID_8087&PID_0024#5&365d106a&0&1#{f18a0e88-c30c-11d0-8815-00a0c906bed8}(1) + VID_2266&PID_0007(2)</USBConnectionRoute></ChronosDeviceInfo>;"<?xml version=""1.0""?>\n<Clock xmlns:dt=""urn:schemas-microsoft-com:datatypes""><Description dt:dt=""string"">E-Prime Primary Realtime Clock</Description><StartTime><Timestamp dt:dt=""int"">0</Timestamp><DateUtc dt:dt=""string"">2013-09-14T12:44:40Z</DateUtc></StartTime><FrequencyChanges><FrequencyChange><Frequency dt:dt=""r8"">3312832</Frequency><Timestamp dt:dt=""r8"">654813166601</Timestamp><Current dt:dt=""r8"">0</Current><DateUtc dt:dt=""string"">2013-09-14T12:44:40Z</DateUtc></FrequencyChange></FrequencyChanges></Clock>\n";EXP2.2_290421-1025-1;59.951;1.0.0.349;1;Chronos;1978712956;Full;3.0.3.80;3.0.3.80;09-14-2013;14/09/2013 12:44;14:44:40;3.0.3.82;2;Chronos;;2;1;2;TESTVV;Generalbloc;;;;pretest;Chronos;9;1;VV_290421/890.png;4;1;9;-10;blocVVstim;listVVTrial;;;;Chronos;0;;0;1;578391;200;;0;0;1;1;Chronos;0;0;578591;0;1;184;578775;0;;;-999999;0;0;0;;0;0;;;;;;;;;;;;;;;;;;;
EXP2.2_290421;1025;1;Chronos;<ChronosDeviceInfo><FriendlyName>MyChronos</FriendlyName><DeviceIndex>1</DeviceIndex><SerialNumber>CHR-04301-1186</SerialNumber><EBNVersion>3.0.3.80</EBNVersion><FirmwareVersion>1.33</FirmwareVersion><APIVersion>1.33</APIVersion><USBHostControllerVersion>2.0</USBHostControllerVersion><USBConnectionRoute>USB#ROOT_HUB20#4&f63975&0#{f18a0e88-c30c-11d0-8815-00a0c906bed8} + USB#VID_8087&PID_0024#5&365d106a&0&1#{f18a0e88-c30c-11d0-8815-00a0c906bed8}(1) + VID_2266&PID_0007(2)</USBConnectionRoute></ChronosDeviceInfo>;"<?xml version=""1.0""?>\n<Clock xmlns:dt=""urn:schemas-microsoft-com:datatypes""><Description dt:dt=""string"">E-Prime Primary Realtime Clock</Description><StartTime><Timestamp dt:dt=""int"">0</Timestamp><DateUtc dt:dt=""string"">2013-09-14T12:44:40Z</DateUtc></StartTime><FrequencyChanges><FrequencyChange><Frequency dt:dt=""r8"">3312832</Frequency><Timestamp dt:dt=""r8"">654813166601</Timestamp><Current dt:dt=""r8"">0</Current><DateUtc dt:dt=""string"">2013-09-14T12:44:40Z</DateUtc></FrequencyChange></FrequencyChanges></Clock>\n";EXP2.2_290421-1025-1;59.951;1.0.0.349;1;Chronos;1978712956;Full;3.0.3.80;3.0.3.80;09-14-2013;14/09/2013 12:44;14:44:40;3.0.3.82;2;Chronos;;2;1;2;TESTVV;Generalbloc;;;;pretest;Chronos;10;1;VV_290421/890.png;4;1;10;-10;blocVVstim;listVVTrial;;;;Chronos;0;;0;1;580309;200;;0;0;1;1;Chronos;0;0;580509;301;1;497;581006;1;1;Chronos;0;1;580810;0;1;196;581006;;;;;;;;;;;;;;;;;;;
EXP2.2_290421;1025;1;Chronos;<ChronosDeviceInfo><FriendlyName>MyChronos</FriendlyName><DeviceIndex>1</DeviceIndex><SerialNumber>CHR-04301-1186</SerialNumber><EBNVersion>3.0.3.80</EBNVersion><FirmwareVersion>1.33</FirmwareVersion><APIVersion>1.33</APIVersion><USBHostControllerVersion>2.0</USBHostControllerVersion><USBConnectionRoute>USB#ROOT_HUB20#4&f63975&0#{f18a0e88-c30c-11d0-8815-00a0c906bed8} + USB#VID_8087&PID_0024#5&365d106a&0&1#{f18a0e88-c30c-11d0-8815-00a0c906bed8}(1) + VID_2266&PID_0007(2)</USBConnectionRoute></ChronosDeviceInfo>;"<?xml version=""1.0""?>\n<Clock xmlns:dt=""urn:schemas-microsoft-com:datatypes""><Description dt:dt=""string"">E-Prime Primary Realtime Clock</Description><StartTime><Timestamp dt:dt=""int"">0</Timestamp><DateUtc dt:dt=""string"">2013-09-14T12:44:40Z</DateUtc></StartTime><FrequencyChanges><FrequencyChange><Frequency dt:dt=""r8"">3312832</Frequency><Timestamp dt:dt=""r8"">654813166601</Timestamp><Current dt:dt=""r8"">0</Current><DateUtc dt:dt=""string"">2013-09-14T12:44:40Z</DateUtc></FrequencyChange></FrequencyChanges></Clock>\n";EXP2.2_290421-1025-1;59.951;1.0.0.349;1;Chronos;1978712956;Full;3.0.3.80;3.0.3.80;09-14-2013;14/09/2013 12:44;14:44:40;3.0.3.82;2;Chronos;;2;1;2;TESTVV;Generalbloc;;;;pretest;Chronos;11;15;VV_290421/900.png;6;1;11;0;blocVVstim;listVVTrial;;;;Chronos;0;;0;2;582528;200;;0;0;0;15;Chronos;0;0;582728;300;5;480;583208;0;15;Chronos;0;0;583028;0;5;180;583208;;;;;;;;;;;;;;;;;;;
EXP2.2_290421;1025;1;Chronos;<ChronosDeviceInfo><FriendlyName>MyChronos</FriendlyName><DeviceIndex>1</DeviceIndex><SerialNumber>CHR-04301-1186</SerialNumber><EBNVersion>3.0.3.80</EBNVersion><FirmwareVersion>1.33</FirmwareVersion><APIVersion>1.33</APIVersion><USBHostControllerVersion>2.0</USBHostControllerVersion><USBConnectionRoute>USB#ROOT_HUB20#4&f63975&0#{f18a0e88-c30c-11d0-8815-00a0c906bed8} + USB#VID_8087&PID_0024#5&365d106a&0&1#{f18a0e88-c30c-11d0-8815-00a0c906bed8}(1) + VID_2266&PID_0007(2)</USBConnectionRoute></ChronosDeviceInfo>;"<?xml version=""1.0""?>\n<Clock xmlns:dt=""urn:schemas-microsoft-com:datatypes""><Description dt:dt=""string"">E-Prime Primary Realtime Clock</Description><StartTime><Timestamp dt:dt=""int"">0</Timestamp><DateUtc dt:dt=""string"">2013-09-14T12:44:40Z</DateUtc></StartTime><FrequencyChanges><FrequencyChange><Frequency dt:dt=""r8"">3312832</Frequency><Timestamp dt:dt=""r8"">654813166601</Timestamp><Current dt:dt=""r8"">0</Current><DateUtc dt:dt=""string"">2013-09-14T12:44:40Z</DateUtc></FrequencyChange></FrequencyChanges></Clock>\n";EXP2.2_290421-1025-1;59.951;1.0.0.349;1;Chronos;1978712956;Full;3.0.3.80;3.0.3.80;09-14-2013;14/09/2013 12:44;14:44:40;3.0.3.82;2;Chronos;;2;1;2;TESTVV;Generalbloc;;;;pretest;Chronos;12;1;VV_290421/885.png;3;1;12;-15;blocVVstim;listVVTrial;;;;Chronos;0;;1;1;584729;201;;0;0;1;1;Chronos;0;1;584930;300;1;521;585451;1;1;Chronos;0;0;585230;0;1;221;585451;;;;;;;;;;;;;;;;;;;
EXP2.2_290421;1025;1;Chronos;<ChronosDeviceInfo><FriendlyName>MyChronos</FriendlyName><DeviceIndex>1</DeviceIndex><SerialNumber>CHR-04301-1186</SerialNumber><EBNVersion>3.0.3.80</EBNVersion><FirmwareVersion>1.33</FirmwareVersion><APIVersion>1.33</APIVersion><USBHostControllerVersion>2.0</USBHostControllerVersion><USBConnectionRoute>USB#ROOT_HUB20#4&f63975&0#{f18a0e88-c30c-11d0-8815-00a0c906bed8} + USB#VID_8087&PID_0024#5&365d106a&0&1#{f18a0e88-c30c-11d0-8815-00a0c906bed8}(1) + VID_2266&PID_0007(2)</USBConnectionRoute></ChronosDeviceInfo>;"<?xml version=""1.0""?>\n<Clock xmlns:dt=""urn:schemas-microsoft-com:datatypes""><Description dt:dt=""string"">E-Prime Primary Realtime Clock</Description><StartTime><Timestamp dt:dt=""int"">0</Timestamp><DateUtc dt:dt=""string"">2013-09-14T12:44:40Z</DateUtc></StartTime><FrequencyChanges><FrequencyChange><Frequency dt:dt=""r8"">3312832</Frequency><Timestamp dt:dt=""r8"">654813166601</Timestamp><Current dt:dt=""r8"">0</Current><DateUtc dt:dt=""string"">2013-09-14T12:44:40Z</DateUtc></FrequencyChange></FrequencyChanges></Clock>\n";EXP2.2_290421-1025-1;59.951;1.0.0.349;1;Chronos;1978712956;Full;3.0.3.80;3.0.3.80;09-14-2013;14/09/2013 12:44;14:44:40;3.0.3.82;2;Chronos;;2;1;2;TESTVV;Generalbloc;;;;pretest;Chronos;13;5;VV_290421/905.png;7;1;13;5;blocVVstim;listVVTrial;;;;Chronos;0;;0;1;586981;201;;0;0;1;5;Chronos;0;1;587182;300;5;657;587839;1;5;Chronos;0;0;587482;0;5;357;587839;;;;;;;;;;;;;;;;;;;
EXP2.2_290421;1025;1;Chronos;<ChronosDeviceInfo><FriendlyName>MyChronos</FriendlyName><DeviceIndex>1</DeviceIndex><SerialNumber>CHR-04301-1186</SerialNumber><EBNVersion>3.0.3.80</EBNVersion><FirmwareVersion>1.33</FirmwareVersion><APIVersion>1.33</APIVersion><USBHostControllerVersion>2.0</USBHostControllerVersion><USBConnectionRoute>USB#ROOT_HUB20#4&f63975&0#{f18a0e88-c30c-11d0-8815-00a0c906bed8} + USB#VID_8087&PID_0024#5&365d106a&0&1#{f18a0e88-c30c-11d0-8815-00a0c906bed8}(1) + VID_2266&PID_0007(2)</USBConnectionRoute></ChronosDeviceInfo>;"<?xml version=""1.0""?>\n<Clock xmlns:dt=""urn:schemas-microsoft-com:datatypes""><Description dt:dt=""string"">E-Prime Primary Realtime Clock</Description><StartTime><Timestamp dt:dt=""int"">0</Timestamp><DateUtc dt:dt=""string"">2013-09-14T12:44:40Z</DateUtc></StartTime><FrequencyChanges><FrequencyChange><Frequency dt:dt=""r8"">3312832</Frequency><Timestamp dt:dt=""r8"">654813166601</Timestamp><Current dt:dt=""r8"">0</Current><DateUtc dt:dt=""string"">2013-09-14T12:44:40Z</DateUtc></FrequencyChange></FrequencyChanges></Clock>\n";EXP2.2_290421-1025-1;59.951;1.0.0.349;1;Chronos;1978712956;Full;3.0.3.80;3.0.3.80;09-14-2013;14/09/2013 12:44;14:44:40;3.0.3.82;2;Chronos;;2;1;2;TESTVV;Generalbloc;;;;pretest;Chronos;14;1;VV_290421/890.png;4;1;14;-10;blocVVstim;listVVTrial;;;;Chronos;0;;0;2;589367;200;;0;0;1;1;Chronos;0;0;589567;300;1;383;589950;1;1;Chronos;0;0;589867;0;1;83;589950;;;;;;;;;;;;;;;;;;;
EXP2.2_290421;1025;1;Chronos;<ChronosDeviceInfo><FriendlyName>MyChronos</FriendlyName><DeviceIndex>1</DeviceIndex><SerialNumber>CHR-04301-1186</SerialNumber><EBNVersion>3.0.3.80</EBNVersion><FirmwareVersion>1.33</FirmwareVersion><APIVersion>1.33</APIVersion><USBHostControllerVersion>2.0</USBHostControllerVersion><USBConnectionRoute>USB#ROOT_HUB20#4&f63975&0#{f18a0e88-c30c-11d0-8815-00a0c906bed8} + USB#VID_8087&PID_0024#5&365d106a&0&1#{f18a0e88-c30c-11d0-8815-00a0c906bed8}(1) + VID_2266&PID_0007(2)</USBConnectionRoute></ChronosDeviceInfo>;"<?xml version=""1.0""?>\n<Clock xmlns:dt=""urn:schemas-microsoft-com:datatypes""><Description dt:dt=""string"">E-Prime Primary Realtime Clock</Description><StartTime><Timestamp dt:dt=""int"">0</Timestamp><DateUtc dt:dt=""string"">2013-09-14T12:44:40Z</DateUtc></StartTime><FrequencyChanges><FrequencyChange><Frequency dt:dt=""r8"">3312832</Frequency><Timestamp dt:dt=""r8"">654813166601</Timestamp><Current dt:dt=""r8"">0</Current><DateUtc dt:dt=""string"">2013-09-14T12:44:40Z</DateUtc></FrequencyChange></FrequencyChanges></Clock>\n";EXP2.2_290421-1025-1;59.951;1.0.0.349;1;Chronos;1978712956;Full;3.0.3.80;3.0.3.80;09-14-2013;14/09/2013 12:44;14:44:40;3.0.3.82;2;Chronos;;2;1;2;TESTVV;Generalbloc;;;;pretest;Chronos;15;1;VV_290421/880.png;2;1;15;-20;blocVVstim;listVVTrial;;;;Chronos;0;;0;1;591485;200;;0;0;1;1;Chronos;0;0;591685;301;1;337;592022;1;1;Chronos;0;1;591986;0;1;36;592022;;;;;;;;;;;;;;;;;;;
EXP2.2_290421;1025;1;Chronos;<ChronosDeviceInfo><FriendlyName>MyChronos</FriendlyName><DeviceIndex>1</DeviceIndex><SerialNumber>CHR-04301-1186</SerialNumber><EBNVersion>3.0.3.80</EBNVersion><FirmwareVersion>1.33</FirmwareVersion><APIVersion>1.33</APIVersion><USBHostControllerVersion>2.0</USBHostControllerVersion><USBConnectionRoute>USB#ROOT_HUB20#4&f63975&0#{f18a0e88-c30c-11d0-8815-00a0c906bed8} + USB#VID_8087&PID_0024#5&365d106a&0&1#{f18a0e88-c30c-11d0-8815-00a0c906bed8}(1) + VID_2266&PID_0007(2)</USBConnectionRoute></ChronosDeviceInfo>;"<?xml version=""1.0""?>\n<Clock xmlns:dt=""urn:schemas-microsoft-com:datatypes""><Description dt:dt=""string"">E-Prime Primary Realtime Clock</Description><StartTime><Timestamp dt:dt=""int"">0</Timestamp><DateUtc dt:dt=""string"">2013-09-14T12:44:40Z</DateUtc></StartTime><FrequencyChanges><FrequencyChange><Frequency dt:dt=""r8"">3312832</Frequency><Timestamp dt:dt=""r8"">654813166601</Timestamp><Current dt:dt=""r8"">0</Current><DateUtc dt:dt=""string"">2013-09-14T12:44:40Z</DateUtc></FrequencyChange></FrequencyChanges></Clock>\n";EXP2.2_290421-1025-1;59.951;1.0.0.349;1;Chronos;1978712956;Full;3.0.3.80;3.0.3.80;09-14-2013;14/09/2013 12:44;14:44:40;3.0.3.82;2;Chronos;;2;1;2;TESTVV;Generalbloc;;;;pretest;Chronos;16;1;VV_290421/880.png;2;1;16;-20;blocVVstim;listVVTrial;;;;Chronos;0;;1;1;593553;201;;0;0;1;1;Chronos;0;1;593754;300;1;415;594169;1;1;Chronos;0;0;594054;0;1;115;594169;;;;;;;;;;;;;;;;;;;
EXP2.2_290421;1025;1;Chronos;<ChronosDeviceInfo><FriendlyName>MyChronos</FriendlyName><DeviceIndex>1</DeviceIndex><SerialNumber>CHR-04301-1186</SerialNumber><EBNVersion>3.0.3.80</EBNVersion><FirmwareVersion>1.33</FirmwareVersion><APIVersion>1.33</APIVersion><USBHostControllerVersion>2.0</USBHostControllerVersion><USBConnectionRoute>USB#ROOT_HUB20#4&f63975&0#{f18a0e88-c30c-11d0-8815-00a0c906bed8} + USB#VID_8087&PID_0024#5&365d106a&0&1#{f18a0e88-c30c-11d0-8815-00a0c906bed8}(1) + VID_2266&PID_0007(2)</USBConnectionRoute></ChronosDeviceInfo>;"<?xml version=""1.0""?>\n<Clock xmlns:dt=""urn:schemas-microsoft-com:datatypes""><Description dt:dt=""string"">E-Prime Primary Realtime Clock</Description><StartTime><Timestamp dt:dt=""int"">0</Timestamp><DateUtc dt:dt=""string"">2013-09-14T12:44:40Z</DateUtc></StartTime><FrequencyChanges><FrequencyChange><Frequency dt:dt=""r8"">3312832</Frequency><Timestamp dt:dt=""r8"">654813166601</Timestamp><Current dt:dt=""r8"">0</Current><DateUtc dt:dt=""string"">2013-09-14T12:44:40Z</DateUtc></FrequencyChange></FrequencyChanges></Clock>\n";EXP2.2_290421-1025-1;59.951;1.0.0.349;1;Chronos;1978712956;Full;3.0.3.80;3.0.3.80;09-14-2013;14/09/2013 12:44;14:44:40;3.0.3.82;2;Chronos;;2;1;2;TESTVV;Generalbloc;;;;pretest;Chronos;17;5;VV_290421/920.png;10;1;17;20;blocVVstim;listVVTrial;;;;Chronos;0;;0;1;595705;200;;0;0;1;5;Chronos;0;0;595905;301;5;417;596322;1;5;Chronos;0;1;596206;0;5;116;596322;;;;;;;;;;;;;;;;;;;
EXP2.2_290421;1025;1;Chronos;<ChronosDeviceInfo><FriendlyName>MyChronos</FriendlyName><DeviceIndex>1</DeviceIndex><SerialNumber>CHR-04301-1186</SerialNumber><EBNVersion>3.0.3.80</EBNVersion><FirmwareVersion>1.33</FirmwareVersion><APIVersion>1.33</APIVersion><USBHostControllerVersion>2.0</USBHostControllerVersion><USBConnectionRoute>USB#ROOT_HUB20#4&f63975&0#{f18a0e88-c30c-11d0-8815-00a0c906bed8} + USB#VID_8087&PID_0024#5&365d106a&0&1#{f18a0e88-c30c-11d0-8815-00a0c906bed8}(1) + VID_2266&PID_0007(2)</USBConnectionRoute></ChronosDeviceInfo>;"<?xml version=""1.0""?>\n<Clock xmlns:dt=""urn:schemas-microsoft-com:datatypes""><Description dt:dt=""string"">E-Prime Primary Realtime Clock</Description><StartTime><Timestamp dt:dt=""int"">0</Timestamp><DateUtc dt:dt=""string"">2013-09-14T12:44:40Z</DateUtc></StartTime><FrequencyChanges><FrequencyChange><Frequency dt:dt=""r8"">3312832</Frequency><Timestamp dt:dt=""r8"">654813166601</Timestamp><Current dt:dt=""r8"">0</Current><DateUtc dt:dt=""string"">2013-09-14T12:44:40Z</DateUtc></FrequencyChange></FrequencyChanges></Clock>\n";EXP2.2_290421-1025-1;59.951;1.0.0.349;1;Chronos;1978712956;Full;3.0.3.80;3.0.3.80;09-14-2013;14/09/2013 12:44;14:44:40;3.0.3.82;2;Chronos;;2;1;2;TESTVV;Generalbloc;;;;pretest;Chronos;18;1;VV_290421/890.png;4;1;18;-10;blocVVstim;listVVTrial;;;;Chronos;0;;0;1;597857;200;;0;0;1;1;Chronos;0;0;598057;300;1;510;598567;1;1;Chronos;1;0;598357;0;1;210;598567;;;;;;;;;;;;;;;;;;;
EXP2.2_290421;1025;1;Chronos;<ChronosDeviceInfo><FriendlyName>MyChronos</FriendlyName><DeviceIndex>1</DeviceIndex><SerialNumber>CHR-04301-1186</SerialNumber><EBNVersion>3.0.3.80</EBNVersion><FirmwareVersion>1.33</FirmwareVersion><APIVersion>1.33</APIVersion><USBHostControllerVersion>2.0</USBHostControllerVersion><USBConnectionRoute>USB#ROOT_HUB20#4&f63975&0#{f18a0e88-c30c-11d0-8815-00a0c906bed8} + USB#VID_8087&PID_0024#5&365d106a&0&1#{f18a0e88-c30c-11d0-8815-00a0c906bed8}(1) + VID_2266&PID_0007(2)</USBConnectionRoute></ChronosDeviceInfo>;"<?xml version=""1.0""?>\n<Clock xmlns:dt=""urn:schemas-microsoft-com:datatypes""><Description dt:dt=""string"">E-Prime Primary Realtime Clock</Description><StartTime><Timestamp dt:dt=""int"">0</Timestamp><DateUtc dt:dt=""string"">2013-09-14T12:44:40Z</DateUtc></StartTime><FrequencyChanges><FrequencyChange><Frequency dt:dt=""r8"">3312832</Frequency><Timestamp dt:dt=""r8"">654813166601</Timestamp><Current dt:dt=""r8"">0</Current><DateUtc dt:dt=""string"">2013-09-14T12:44:40Z</DateUtc></FrequencyChange></FrequencyChanges></Clock>\n";EXP2.2_290421-1025-1;59.951;1.0.0.349;1;Chronos;1978712956;Full;3.0.3.80;3.0.3.80;09-14-2013;14/09/2013 12:44;14:44:40;3.0.3.82;2;Chronos;;2;1;2;TESTVV;Generalbloc;;;;pretest;Chronos;19;1;VV_290421/880.png;2;1;19;-20;blocVVstim;listVVTrial;;;;Chronos;0;;0;1;600092;200;;0;0;1;1;Chronos;0;0;600292;0;1;203;600495;0;;;-999999;0;0;0;;0;0;;;;;;;;;;;;;;;;;;;
EXP2.2_290421;1025;1;Chronos;<ChronosDeviceInfo><FriendlyName>MyChronos</FriendlyName><DeviceIndex>1</DeviceIndex><SerialNumber>CHR-04301-1186</SerialNumber><EBNVersion>3.0.3.80</EBNVersion><FirmwareVersion>1.33</FirmwareVersion><APIVersion>1.33</APIVersion><USBHostControllerVersion>2.0</USBHostControllerVersion><USBConnectionRoute>USB#ROOT_HUB20#4&f63975&0#{f18a0e88-c30c-11d0-8815-00a0c906bed8} + USB#VID_8087&PID_0024#5&365d106a&0&1#{f18a0e88-c30c-11d0-8815-00a0c906bed8}(1) + VID_2266&PID_0007(2)</USBConnectionRoute></ChronosDeviceInfo>;"<?xml version=""1.0""?>\n<Clock xmlns:dt=""urn:schemas-microsoft-com:datatypes""><Description dt:dt=""string"">E-Prime Primary Realtime Clock</Description><StartTime><Timestamp dt:dt=""int"">0</Timestamp><DateUtc dt:dt=""string"">2013-09-14T12:44:40Z</DateUtc></StartTime><FrequencyChanges><FrequencyChange><Frequency dt:dt=""r8"">3312832</Frequency><Timestamp dt:dt=""r8"">654813166601</Timestamp><Current dt:dt=""r8"">0</Current><DateUtc dt:dt=""string"">2013-09-14T12:44:40Z</DateUtc></FrequencyChange></FrequencyChanges></Clock>\n";EXP2.2_290421-1025-1;59.951;1.0.0.349;1;Chronos;1978712956;Full;3.0.3.80;3.0.3.80;09-14-2013;14/09/2013 12:44;14:44:40;3.0.3.82;2;Chronos;;2;1;2;TESTVV;Generalbloc;;;;pretest;Chronos;20;5;VV_290421/905.png;7;1;20;5;blocVVstim;listVVTrial;;;;Chronos;0;;0;1;602027;200;;0;0;1;5;Chronos;0;0;602227;301;5;486;602713;1;5;Chronos;0;1;602528;0;5;185;602713;;;;;;;;;;;;;;;;;;;
EXP2.2_290421;1025;1;Chronos;<ChronosDeviceInfo><FriendlyName>MyChronos</FriendlyName><DeviceIndex>1</DeviceIndex><SerialNumber>CHR-04301-1186</SerialNumber><EBNVersion>3.0.3.80</EBNVersion><FirmwareVersion>1.33</FirmwareVersion><APIVersion>1.33</APIVersion><USBHostControllerVersion>2.0</USBHostControllerVersion><USBConnectionRoute>USB#ROOT_HUB20#4&f63975&0#{f18a0e88-c30c-11d0-8815-00a0c906bed8} + USB#VID_8087&PID_0024#5&365d106a&0&1#{f18a0e88-c30c-11d0-8815-00a0c906bed8}(1) + VID_2266&PID_0007(2)</USBConnectionRoute></ChronosDeviceInfo>;"<?xml version=""1.0""?>\n<Clock xmlns:dt=""urn:schemas-microsoft-com:datatypes""><Description dt:dt=""string"">E-Prime Primary Realtime Clock</Description><StartTime><Timestamp dt:dt=""int"">0</Timestamp><DateUtc dt:dt=""string"">2013-09-14T12:44:40Z</DateUtc></StartTime><FrequencyChanges><FrequencyChange><Frequency dt:dt=""r8"">3312832</Frequency><Timestamp dt:dt=""r8"">654813166601</Timestamp><Current dt:dt=""r8"">0</Current><DateUtc dt:dt=""string"">2013-09-14T12:44:40Z</DateUtc></FrequencyChange></FrequencyChanges></Clock>\n";EXP2.2_290421-1025-1;59.951;1.0.0.349;1;Chronos;1978712956;Full;3.0.3.80;3.0.3.80;09-14-2013;14/09/2013 12:44;14:44:40;3.0.3.82;2;Chronos;;2;1;2;TESTVV;Generalbloc;;;;pretest;Chronos;21;15;VV_290421/900.png;6;1;21;0;blocVVstim;listVVTrial;;;;Chronos;0;;0;2;604246;200;;0;0;0;15;Chronos;0;0;604446;300;1;567;605013;0;15;Chronos;0;0;604746;0;1;267;605013;;;;;;;;;;;;;;;;;;;
EXP2.2_290421;1025;1;Chronos;<ChronosDeviceInfo><FriendlyName>MyChronos</FriendlyName><DeviceIndex>1</DeviceIndex><SerialNumber>CHR-04301-1186</SerialNumber><EBNVersion>3.0.3.80</EBNVersion><FirmwareVersion>1.33</FirmwareVersion><APIVersion>1.33</APIVersion><USBHostControllerVersion>2.0</USBHostControllerVersion><USBConnectionRoute>USB#ROOT_HUB20#4&f63975&0#{f18a0e88-c30c-11d0-8815-00a0c906bed8} + USB#VID_8087&PID_0024#5&365d106a&0&1#{f18a0e88-c30c-11d0-8815-00a0c906bed8}(1) + VID_2266&PID_0007(2)</USBConnectionRoute></ChronosDeviceInfo>;"<?xml version=""1.0""?>\n<Clock xmlns:dt=""urn:schemas-microsoft-com:datatypes""><Description dt:dt=""string"">E-Prime Primary Realtime Clock</Description><StartTime><Timestamp dt:dt=""int"">0</Timestamp><DateUtc dt:dt=""string"">2013-09-14T12:44:40Z</DateUtc></StartTime><FrequencyChanges><FrequencyChange><Frequency dt:dt=""r8"">3312832</Frequency><Timestamp dt:dt=""r8"">654813166601</Timestamp><Current dt:dt=""r8"">0</Current><DateUtc dt:dt=""string"">2013-09-14T12:44:40Z</DateUtc></FrequencyChange></FrequencyChanges></Clock>\n";EXP2.2_290421-1025-1;59.951;1.0.0.349;1;Chronos;1978712956;Full;3.0.3.80;3.0.3.80;09-14-2013;14/09/2013 12:44;14:44:40;3.0.3.82;2;Chronos;;2;1;2;TESTVV;Generalbloc;;;;pretest;Chronos;22;1;VV_290421/885.png;3;1;22;-15;blocVVstim;listVVTrial;;;;Chronos;0;;0;2;606548;200;;0;0;1;1;Chronos;0;0;606748;0;1;233;606981;0;;;-999999;0;0;0;;0;0;;;;;;;;;;;;;;;;;;;
EXP2.2_290421;1025;1;Chronos;<ChronosDeviceInfo><FriendlyName>MyChronos</FriendlyName><DeviceIndex>1</DeviceIndex><SerialNumber>CHR-04301-1186</SerialNumber><EBNVersion>3.0.3.80</EBNVersion><FirmwareVersion>1.33</FirmwareVersion><APIVersion>1.33</APIVersion><USBHostControllerVersion>2.0</USBHostControllerVersion><USBConnectionRoute>USB#ROOT_HUB20#4&f63975&0#{f18a0e88-c30c-11d0-8815-00a0c906bed8} + USB#VID_8087&PID_0024#5&365d106a&0&1#{f18a0e88-c30c-11d0-8815-00a0c906bed8}(1) + VID_2266&PID_0007(2)</USBConnectionRoute></ChronosDeviceInfo>;"<?xml version=""1.0""?>\n<Clock xmlns:dt=""urn:schemas-microsoft-com:datatypes""><Description dt:dt=""string"">E-Prime Primary Realtime Clock</Description><StartTime><Timestamp dt:dt=""int"">0</Timestamp><DateUtc dt:dt=""string"">2013-09-14T12:44:40Z</DateUtc></StartTime><FrequencyChanges><FrequencyChange><Frequency dt:dt=""r8"">3312832</Frequency><Timestamp dt:dt=""r8"">654813166601</Timestamp><Current dt:dt=""r8"">0</Current><DateUtc dt:dt=""string"">2013-09-14T12:44:40Z</DateUtc></FrequencyChange></FrequencyChanges></Clock>\n";EXP2.2_290421-1025-1;59.951;1.0.0.349;1;Chronos;1978712956;Full;3.0.3.80;3.0.3.80;09-14-2013;14/09/2013 12:44;14:44:40;3.0.3.82;2;Chronos;;2;1;2;TESTVV;Generalbloc;;;;pretest;Chronos;23;5;VV_290421/925.png;11;1;23;25;blocVVstim;listVVTrial;;;;Chronos;0;;0;1;608516;200;;0;0;1;5;Chronos;0;0;608716;300;5;455;609171;1;5;Chronos;0;0;609016;0;5;155;609171;;;;;;;;;;;;;;;;;;;
EXP2.2_290421;1025;1;Chronos;<ChronosDeviceInfo><FriendlyName>MyChronos</FriendlyName><DeviceIndex>1</DeviceIndex><SerialNumber>CHR-04301-1186</SerialNumber><EBNVersion>3.0.3.80</EBNVersion><FirmwareVersion>1.33</FirmwareVersion><APIVersion>1.33</APIVersion><USBHostControllerVersion>2.0</USBHostControllerVersion><USBConnectionRoute>USB#ROOT_HUB20#4&f63975&0#{f18a0e88-c30c-11d0-8815-00a0c906bed8} + USB#VID_8087&PID_0024#5&365d106a&0&1#{f18a0e88-c30c-11d0-8815-00a0c906bed8}(1) + VID_2266&PID_0007(2)</USBConnectionRoute></ChronosDeviceInfo>;"<?xml version=""1.0""?>\n<Clock xmlns:dt=""urn:schemas-microsoft-com:datatypes""><Description dt:dt=""string"">E-Prime Primary Realtime Clock</Description><StartTime><Timestamp dt:dt=""int"">0</Timestamp><DateUtc dt:dt=""string"">2013-09-14T12:44:40Z</DateUtc></StartTime><FrequencyChanges><FrequencyChange><Frequency dt:dt=""r8"">3312832</Frequency><Timestamp dt:dt=""r8"">654813166601</Timestamp><Current dt:dt=""r8"">0</Current><DateUtc dt:dt=""string"">2013-09-14T12:44:40Z</DateUtc></FrequencyChange></FrequencyChanges></Clock>\n";EXP2.2_290421-1025-1;59.951;1.0.0.349;1;Chronos;1978712956;Full;3.0.3.80;3.0.3.80;09-14-2013;14/09/2013 12:44;14:44:40;3.0.3.82;2;Chronos;;2;1;2;TESTVV;Generalbloc;;;;pretest;Chronos;24;5;VV_290421/920.png;10;1;24;20;blocVVstim;listVVTrial;;;;Chronos;0;;0;1;610701;200;;0;0;1;5;Chronos;0;0;610901;300;5;521;611422;1;5;Chronos;0;0;611201;0;5;221;611422;;;;;;;;;;;;;;;;;;;
EXP2.2_290421;1025;1;Chronos;<ChronosDeviceInfo><FriendlyName>MyChronos</FriendlyName><DeviceIndex>1</DeviceIndex><SerialNumber>CHR-04301-1186</SerialNumber><EBNVersion>3.0.3.80</EBNVersion><FirmwareVersion>1.33</FirmwareVersion><APIVersion>1.33</APIVersion><USBHostControllerVersion>2.0</USBHostControllerVersion><USBConnectionRoute>USB#ROOT_HUB20#4&f63975&0#{f18a0e88-c30c-11d0-8815-00a0c906bed8} + USB#VID_8087&PID_0024#5&365d106a&0&1#{f18a0e88-c30c-11d0-8815-00a0c906bed8}(1) + VID_2266&PID_0007(2)</USBConnectionRoute></ChronosDeviceInfo>;"<?xml version=""1.0""?>\n<Clock xmlns:dt=""urn:schemas-microsoft-com:datatypes""><Description dt:dt=""string"">E-Prime Primary Realtime Clock</Description><StartTime><Timestamp dt:dt=""int"">0</Timestamp><DateUtc dt:dt=""string"">2013-09-14T12:44:40Z</DateUtc></StartTime><FrequencyChanges><FrequencyChange><Frequency dt:dt=""r8"">3312832</Frequency><Timestamp dt:dt=""r8"">654813166601</Timestamp><Current dt:dt=""r8"">0</Current><DateUtc dt:dt=""string"">2013-09-14T12:44:40Z</DateUtc></FrequencyChange></FrequencyChanges></Clock>\n";EXP2.2_290421-1025-1;59.951;1.0.0.349;1;Chronos;1978712956;Full;3.0.3.80;3.0.3.80;09-14-2013;14/09/2013 12:44;14:44:40;3.0.3.82;2;Chronos;;2;1;2;TESTVV;Generalbloc;;;;pretest;Chronos;25;1;VV_290421/875.png;1;1;25;-25;blocVVstim;listVVTrial;;;;Chronos;0;;0;1;612953;200;;0;0;1;1;Chronos;0;0;613153;300;1;452;613605;1;1;Chronos;0;0;613453;0;1;152;613605;;;;;;;;;;;;;;;;;;;
EXP2.2_290421;1025;1;Chronos;<ChronosDeviceInfo><FriendlyName>MyChronos</FriendlyName><DeviceIndex>1</DeviceIndex><SerialNumber>CHR-04301-1186</SerialNumber><EBNVersion>3.0.3.80</EBNVersion><FirmwareVersion>1.33</FirmwareVersion><APIVersion>1.33</APIVersion><USBHostControllerVersion>2.0</USBHostControllerVersion><USBConnectionRoute>USB#ROOT_HUB20#4&f63975&0#{f18a0e88-c30c-11d0-8815-00a0c906bed8} + USB#VID_8087&PID_0024#5&365d106a&0&1#{f18a0e88-c30c-11d0-8815-00a0c906bed8}(1) + VID_2266&PID_0007(2)</USBConnectionRoute></ChronosDeviceInfo>;"<?xml version=""1.0""?>\n<Clock xmlns:dt=""urn:schemas-microsoft-com:datatypes""><Description dt:dt=""string"">E-Prime Primary Realtime Clock</Description><StartTime><Timestamp dt:dt=""int"">0</Timestamp><DateUtc dt:dt=""string"">2013-09-14T12:44:40Z</DateUtc></StartTime><FrequencyChanges><FrequencyChange><Frequency dt:dt=""r8"">3312832</Frequency><Timestamp dt:dt=""r8"">654813166601</Timestamp><Current dt:dt=""r8"">0</Current><DateUtc dt:dt=""string"">2013-09-14T12:44:40Z</DateUtc></FrequencyChange></FrequencyChanges></Clock>\n";EXP2.2_290421-1025-1;59.951;1.0.0.349;1;Chronos;1978712956;Full;3.0.3.80;3.0.3.80;09-14-2013;14/09/2013 12:44;14:44:40;3.0.3.82;2;Chronos;;2;1;2;TESTVV;Generalbloc;;;;pretest;Chronos;26;5;VV_290421/920.png;10;1;26;20;blocVVstim;listVVTrial;;;;Chronos;0;;0;1;615138;200;;0;0;1;5;Chronos;0;0;615338;300;5;376;615714;1;5;Chronos;0;0;615638;0;5;76;615714;;;;;;;;;;;;;;;;;;;
EXP2.2_290421;1025;1;Chronos;<ChronosDeviceInfo><FriendlyName>MyChronos</FriendlyName><DeviceIndex>1</DeviceIndex><SerialNumber>CHR-04301-1186</SerialNumber><EBNVersion>3.0.3.80</EBNVersion><FirmwareVersion>1.33</FirmwareVersion><APIVersion>1.33</APIVersion><USBHostControllerVersion>2.0</USBHostControllerVersion><USBConnectionRoute>USB#ROOT_HUB20#4&f63975&0#{f18a0e88-c30c-11d0-8815-00a0c906bed8} + USB#VID_8087&PID_0024#5&365d106a&0&1#{f18a0e88-c30c-11d0-8815-00a0c906bed8}(1) + VID_2266&PID_0007(2)</USBConnectionRoute></ChronosDeviceInfo>;"<?xml version=""1.0""?>\n<Clock xmlns:dt=""urn:schemas-microsoft-com:datatypes""><Description dt:dt=""string"">E-Prime Primary Realtime Clock</Description><StartTime><Timestamp dt:dt=""int"">0</Timestamp><DateUtc dt:dt=""string"">2013-09-14T12:44:40Z</DateUtc></StartTime><FrequencyChanges><FrequencyChange><Frequency dt:dt=""r8"">3312832</Frequency><Timestamp dt:dt=""r8"">654813166601</Timestamp><Current dt:dt=""r8"">0</Current><DateUtc dt:dt=""string"">2013-09-14T12:44:40Z</DateUtc></FrequencyChange></FrequencyChanges></Clock>\n";EXP2.2_290421-1025-1;59.951;1.0.0.349;1;Chronos;1978712956;Full;3.0.3.80;3.0.3.80;09-14-2013;14/09/2013 12:44;14:44:40;3.0.3.82;2;Chronos;;2;1;2;TESTVV;Generalbloc;;;;pretest;Chronos;27;5;VV_290421/910.png;8;1;27;10;blocVVstim;listVVTrial;;;;Chronos;0;;0;1;617240;200;;0;0;1;5;Chronos;0;0;617440;300;5;485;617925;1;5;Chronos;0;0;617740;0;5;185;617925;;;;;;;;;;;;;;;;;;;
EXP2.2_290421;1025;1;Chronos;<ChronosDeviceInfo><FriendlyName>MyChronos</FriendlyName><DeviceIndex>1</DeviceIndex><SerialNumber>CHR-04301-1186</SerialNumber><EBNVersion>3.0.3.80</EBNVersion><FirmwareVersion>1.33</FirmwareVersion><APIVersion>1.33</APIVersion><USBHostControllerVersion>2.0</USBHostControllerVersion><USBConnectionRoute>USB#ROOT_HUB20#4&f63975&0#{f18a0e88-c30c-11d0-8815-00a0c906bed8} + USB#VID_8087&PID_0024#5&365d106a&0&1#{f18a0e88-c30c-11d0-8815-00a0c906bed8}(1) + VID_2266&PID_0007(2)</USBConnectionRoute></ChronosDeviceInfo>;"<?xml version=""1.0""?>\n<Clock xmlns:dt=""urn:schemas-microsoft-com:datatypes""><Description dt:dt=""string"">E-Prime Primary Realtime Clock</Description><StartTime><Timestamp dt:dt=""int"">0</Timestamp><DateUtc dt:dt=""string"">2013-09-14T12:44:40Z</DateUtc></StartTime><FrequencyChanges><FrequencyChange><Frequency dt:dt=""r8"">3312832</Frequency><Timestamp dt:dt=""r8"">654813166601</Timestamp><Current dt:dt=""r8"">0</Current><DateUtc dt:dt=""string"">2013-09-14T12:44:40Z</DateUtc></FrequencyChange></FrequencyChanges></Clock>\n";EXP2.2_290421-1025-1;59.951;1.0.0.349;1;Chronos;1978712956;Full;3.0.3.80;3.0.3.80;09-14-2013;14/09/2013 12:44;14:44:40;3.0.3.82;2;Chronos;;2;1;2;TESTVV;Generalbloc;;;;pretest;Chronos;28;5;VV_290421/905.png;7;1;28;5;blocVVstim;listVVTrial;;;;Chronos;0;;0;1;619458;200;;0;0;1;5;Chronos;0;0;619658;301;5;723;620381;1;5;Chronos;0;1;619959;0;5;422;620381;;;;;;;;;;;;;;;;;;;
EXP2.2_290421;1025;1;Chronos;<ChronosDeviceInfo><FriendlyName>MyChronos</FriendlyName><DeviceIndex>1</DeviceIndex><SerialNumber>CHR-04301-1186</SerialNumber><EBNVersion>3.0.3.80</EBNVersion><FirmwareVersion>1.33</FirmwareVersion><APIVersion>1.33</APIVersion><USBHostControllerVersion>2.0</USBHostControllerVersion><USBConnectionRoute>USB#ROOT_HUB20#4&f63975&0#{f18a0e88-c30c-11d0-8815-00a0c906bed8} + USB#VID_8087&PID_0024#5&365d106a&0&1#{f18a0e88-c30c-11d0-8815-00a0c906bed8}(1) + VID_2266&PID_0007(2)</USBConnectionRoute></ChronosDeviceInfo>;"<?xml version=""1.0""?>\n<Clock xmlns:dt=""urn:schemas-microsoft-com:datatypes""><Description dt:dt=""string"">E-Prime Primary Realtime Clock</Description><StartTime><Timestamp dt:dt=""int"">0</Timestamp><DateUtc dt:dt=""string"">2013-09-14T12:44:40Z</DateUtc></StartTime><FrequencyChanges><FrequencyChange><Frequency dt:dt=""r8"">3312832</Frequency><Timestamp dt:dt=""r8"">654813166601</Timestamp><Current dt:dt=""r8"">0</Current><DateUtc dt:dt=""string"">2013-09-14T12:44:40Z</DateUtc></FrequencyChange></FrequencyChanges></Clock>\n";EXP2.2_290421-1025-1;59.951;1.0.0.349;1;Chronos;1978712956;Full;3.0.3.80;3.0.3.80;09-14-2013;14/09/2013 12:44;14:44:40;3.0.3.82;2;Chronos;;2;1;2;TESTVV;Generalbloc;;;;pretest;Chronos;29;5;VV_290421/905.png;7;1;29;5;blocVVstim;listVVTrial;;;;Chronos;0;;0;1;621910;200;;0;0;1;5;Chronos;1;0;622110;301;5;832;622942;1;5;Chronos;0;1;622411;0;5;531;622942;;;;;;;;;;;;;;;;;;;
EXP2.2_290421;1025;1;Chronos;<ChronosDeviceInfo><FriendlyName>MyChronos</FriendlyName><DeviceIndex>1</DeviceIndex><SerialNumber>CHR-04301-1186</SerialNumber><EBNVersion>3.0.3.80</EBNVersion><FirmwareVersion>1.33</FirmwareVersion><APIVersion>1.33</APIVersion><USBHostControllerVersion>2.0</USBHostControllerVersion><USBConnectionRoute>USB#ROOT_HUB20#4&f63975&0#{f18a0e88-c30c-11d0-8815-00a0c906bed8} + USB#VID_8087&PID_0024#5&365d106a&0&1#{f18a0e88-c30c-11d0-8815-00a0c906bed8}(1) + VID_2266&PID_0007(2)</USBConnectionRoute></ChronosDeviceInfo>;"<?xml version=""1.0""?>\n<Clock xmlns:dt=""urn:schemas-microsoft-com:datatypes""><Description dt:dt=""string"">E-Prime Primary Realtime Clock</Description><StartTime><Timestamp dt:dt=""int"">0</Timestamp><DateUtc dt:dt=""string"">2013-09-14T12:44:40Z</DateUtc></StartTime><FrequencyChanges><FrequencyChange><Frequency dt:dt=""r8"">3312832</Frequency><Timestamp dt:dt=""r8"">654813166601</Timestamp><Current dt:dt=""r8"">0</Current><DateUtc dt:dt=""string"">2013-09-14T12:44:40Z</DateUtc></FrequencyChange></FrequencyChanges></Clock>\n";EXP2.2_290421-1025-1;59.951;1.0.0.349;1;Chronos;1978712956;Full;3.0.3.80;3.0.3.80;09-14-2013;14/09/2013 12:44;14:44:40;3.0.3.82;2;Chronos;;2;1;2;TESTVV;Generalbloc;;;;pretest;Chronos;30;5;VV_290421/910.png;8;1;30;10;blocVVstim;listVVTrial;;;;Chronos;0;;0;1;624462;201;;0;0;1;5;Chronos;0;1;624663;300;5;534;625197;1;5;Chronos;0;0;624963;0;5;234;625197;;;;;;;;;;;;;;;;;;;
EXP2.2_290421;1025;1;Chronos;<ChronosDeviceInfo><FriendlyName>MyChronos</FriendlyName><DeviceIndex>1</DeviceIndex><SerialNumber>CHR-04301-1186</SerialNumber><EBNVersion>3.0.3.80</EBNVersion><FirmwareVersion>1.33</FirmwareVersion><APIVersion>1.33</APIVersion><USBHostControllerVersion>2.0</USBHostControllerVersion><USBConnectionRoute>USB#ROOT_HUB20#4&f63975&0#{f18a0e88-c30c-11d0-8815-00a0c906bed8} + USB#VID_8087&PID_0024#5&365d106a&0&1#{f18a0e88-c30c-11d0-8815-00a0c906bed8}(1) + VID_2266&PID_0007(2)</USBConnectionRoute></ChronosDeviceInfo>;"<?xml version=""1.0""?>\n<Clock xmlns:dt=""urn:schemas-microsoft-com:datatypes""><Description dt:dt=""string"">E-Prime Primary Realtime Clock</Description><StartTime><Timestamp dt:dt=""int"">0</Timestamp><DateUtc dt:dt=""string"">2013-09-14T12:44:40Z</DateUtc></StartTime><FrequencyChanges><FrequencyChange><Frequency dt:dt=""r8"">3312832</Frequency><Timestamp dt:dt=""r8"">654813166601</Timestamp><Current dt:dt=""r8"">0</Current><DateUtc dt:dt=""string"">2013-09-14T12:44:40Z</DateUtc></FrequencyChange></FrequencyChanges></Clock>\n";EXP2.2_290421-1025-1;59.951;1.0.0.349;1;Chronos;1978712956;Full;3.0.3.80;3.0.3.80;09-14-2013;14/09/2013 12:44;14:44:40;3.0.3.82;2;Chronos;;2;1;2;TESTVV;Generalbloc;;;;pretest;Chronos;31;1;VV_290421/885.png;3;1;31;-15;blocVVstim;listVVTrial;;;;Chronos;0;;0;1;626731;200;;0;0;1;1;Chronos;0;0;626931;300;1;315;627246;1;1;Chronos;0;0;627231;0;1;15;627246;;;;;;;;;;;;;;;;;;;
EXP2.2_290421;1025;1;Chronos;<ChronosDeviceInfo><FriendlyName>MyChronos</FriendlyName><DeviceIndex>1</DeviceIndex><SerialNumber>CHR-04301-1186</SerialNumber><EBNVersion>3.0.3.80</EBNVersion><FirmwareVersion>1.33</FirmwareVersion><APIVersion>1.33</APIVersion><USBHostControllerVersion>2.0</USBHostControllerVersion><USBConnectionRoute>USB#ROOT_HUB20#4&f63975&0#{f18a0e88-c30c-11d0-8815-00a0c906bed8} + USB#VID_8087&PID_0024#5&365d106a&0&1#{f18a0e88-c30c-11d0-8815-00a0c906bed8}(1) + VID_2266&PID_0007(2)</USBConnectionRoute></ChronosDeviceInfo>;"<?xml version=""1.0""?>\n<Clock xmlns:dt=""urn:schemas-microsoft-com:datatypes""><Description dt:dt=""string"">E-Prime Primary Realtime Clock</Description><StartTime><Timestamp dt:dt=""int"">0</Timestamp><DateUtc dt:dt=""string"">2013-09-14T12:44:40Z</DateUtc></StartTime><FrequencyChanges><FrequencyChange><Frequency dt:dt=""r8"">3312832</Frequency><Timestamp dt:dt=""r8"">654813166601</Timestamp><Current dt:dt=""r8"">0</Current><DateUtc dt:dt=""string"">2013-09-14T12:44:40Z</DateUtc></FrequencyChange></FrequencyChanges></Clock>\n";EXP2.2_290421-1025-1;59.951;1.0.0.349;1;Chronos;1978712956;Full;3.0.3.80;3.0.3.80;09-14-2013;14/09/2013 12:44;14:44:40;3.0.3.82;2;Chronos;;2;1;2;TESTVV;Generalbloc;;;;pretest;Chronos;32;1;VV_290421/895.png;5;1;32;-5;blocVVstim;listVVTrial;;;;Chronos;0;;0;1;628766;200;;0;0;1;1;Chronos;0;0;628966;300;1;506;629472;1;1;Chronos;0;0;629266;0;1;206;629472;;;;;;;;;;;;;;;;;;;
EXP2.2_290421;1025;1;Chronos;<ChronosDeviceInfo><FriendlyName>MyChronos</FriendlyName><DeviceIndex>1</DeviceIndex><SerialNumber>CHR-04301-1186</SerialNumber><EBNVersion>3.0.3.80</EBNVersion><FirmwareVersion>1.33</FirmwareVersion><APIVersion>1.33</APIVersion><USBHostControllerVersion>2.0</USBHostControllerVersion><USBConnectionRoute>USB#ROOT_HUB20#4&f63975&0#{f18a0e88-c30c-11d0-8815-00a0c906bed8} + USB#VID_8087&PID_0024#5&365d106a&0&1#{f18a0e88-c30c-11d0-8815-00a0c906bed8}(1) + VID_2266&PID_0007(2)</USBConnectionRoute></ChronosDeviceInfo>;"<?xml version=""1.0""?>\n<Clock xmlns:dt=""urn:schemas-microsoft-com:datatypes""><Description dt:dt=""string"">E-Prime Primary Realtime Clock</Description><StartTime><Timestamp dt:dt=""int"">0</Timestamp><DateUtc dt:dt=""string"">2013-09-14T12:44:40Z</DateUtc></StartTime><FrequencyChanges><FrequencyChange><Frequency dt:dt=""r8"">3312832</Frequency><Timestamp dt:dt=""r8"">654813166601</Timestamp><Current dt:dt=""r8"">0</Current><DateUtc dt:dt=""string"">2013-09-14T12:44:40Z</DateUtc></FrequencyChange></FrequencyChanges></Clock>\n";EXP2.2_290421-1025-1;59.951;1.0.0.349;1;Chronos;1978712956;Full;3.0.3.80;3.0.3.80;09-14-2013;14/09/2013 12:44;14:44:40;3.0.3.82;2;Chronos;;2;1;2;TESTVV;Generalbloc;;;;pretest;Chronos;33;1;VV_290421/875.png;1;1;33;-25;blocVVstim;listVVTrial;;;;Chronos;0;;0;1;631001;200;;0;0;1;1;Chronos;0;0;631201;0;1;222;631423;0;;;-999999;0;0;0;;0;0;;;;;;;;;;;;;;;;;;;
EXP2.2_290421;1025;1;Chronos;<ChronosDeviceInfo><FriendlyName>MyChronos</FriendlyName><DeviceIndex>1</DeviceIndex><SerialNumber>CHR-04301-1186</SerialNumber><EBNVersion>3.0.3.80</EBNVersion><FirmwareVersion>1.33</FirmwareVersion><APIVersion>1.33</APIVersion><USBHostControllerVersion>2.0</USBHostControllerVersion><USBConnectionRoute>USB#ROOT_HUB20#4&f63975&0#{f18a0e88-c30c-11d0-8815-00a0c906bed8} + USB#VID_8087&PID_0024#5&365d106a&0&1#{f18a0e88-c30c-11d0-8815-00a0c906bed8}(1) + VID_2266&PID_0007(2)</USBConnectionRoute></ChronosDeviceInfo>;"<?xml version=""1.0""?>\n<Clock xmlns:dt=""urn:schemas-microsoft-com:datatypes""><Description dt:dt=""string"">E-Prime Primary Realtime Clock</Description><StartTime><Timestamp dt:dt=""int"">0</Timestamp><DateUtc dt:dt=""string"">2013-09-14T12:44:40Z</DateUtc></StartTime><FrequencyChanges><FrequencyChange><Frequency dt:dt=""r8"">3312832</Frequency><Timestamp dt:dt=""r8"">654813166601</Timestamp><Current dt:dt=""r8"">0</Current><DateUtc dt:dt=""string"">2013-09-14T12:44:40Z</DateUtc></FrequencyChange></FrequencyChanges></Clock>\n";EXP2.2_290421-1025-1;59.951;1.0.0.349;1;Chronos;1978712956;Full;3.0.3.80;3.0.3.80;09-14-2013;14/09/2013 12:44;14:44:40;3.0.3.82;2;Chronos;;2;1;2;TESTVV;Generalbloc;;;;pretest;Chronos;34;1;VV_290421/895.png;5;1;34;-5;blocVVstim;listVVTrial;;;;Chronos;0;;0;1;632953;200;;0;0;1;1;Chronos;0;0;633153;300;1;672;633825;1;1;Chronos;0;0;633453;0;1;372;633825;;;;;;;;;;;;;;;;;;;
EXP2.2_290421;1025;1;Chronos;<ChronosDeviceInfo><FriendlyName>MyChronos</FriendlyName><DeviceIndex>1</DeviceIndex><SerialNumber>CHR-04301-1186</SerialNumber><EBNVersion>3.0.3.80</EBNVersion><FirmwareVersion>1.33</FirmwareVersion><APIVersion>1.33</APIVersion><USBHostControllerVersion>2.0</USBHostControllerVersion><USBConnectionRoute>USB#ROOT_HUB20#4&f63975&0#{f18a0e88-c30c-11d0-8815-00a0c906bed8} + USB#VID_8087&PID_0024#5&365d106a&0&1#{f18a0e88-c30c-11d0-8815-00a0c906bed8}(1) + VID_2266&PID_0007(2)</USBConnectionRoute></ChronosDeviceInfo>;"<?xml version=""1.0""?>\n<Clock xmlns:dt=""urn:schemas-microsoft-com:datatypes""><Description dt:dt=""string"">E-Prime Primary Realtime Clock</Description><StartTime><Timestamp dt:dt=""int"">0</Timestamp><DateUtc dt:dt=""string"">2013-09-14T12:44:40Z</DateUtc></StartTime><FrequencyChanges><FrequencyChange><Frequency dt:dt=""r8"">3312832</Frequency><Timestamp dt:dt=""r8"">654813166601</Timestamp><Current dt:dt=""r8"">0</Current><DateUtc dt:dt=""string"">2013-09-14T12:44:40Z</DateUtc></FrequencyChange></FrequencyChanges></Clock>\n";EXP2.2_290421-1025-1;59.951;1.0.0.349;1;Chronos;1978712956;Full;3.0.3.80;3.0.3.80;09-14-2013;14/09/2013 12:44;14:44:40;3.0.3.82;2;Chronos;;2;1;2;TESTVV;Generalbloc;;;;pretest;Chronos;35;1;VV_290421/885.png;3;1;35;-15;blocVVstim;listVVTrial;;;;Chronos;0;;0;2;635355;200;;0;0;1;1;Chronos;0;0;635555;300;1;419;635974;1;1;Chronos;0;0;635855;0;1;119;635974;;;;;;;;;;;;;;;;;;;
EXP2.2_290421;1025;1;Chronos;<ChronosDeviceInfo><FriendlyName>MyChronos</FriendlyName><DeviceIndex>1</DeviceIndex><SerialNumber>CHR-04301-1186</SerialNumber><EBNVersion>3.0.3.80</EBNVersion><FirmwareVersion>1.33</FirmwareVersion><APIVersion>1.33</APIVersion><USBHostControllerVersion>2.0</USBHostControllerVersion><USBConnectionRoute>USB#ROOT_HUB20#4&f63975&0#{f18a0e88-c30c-11d0-8815-00a0c906bed8} + USB#VID_8087&PID_0024#5&365d106a&0&1#{f18a0e88-c30c-11d0-8815-00a0c906bed8}(1) + VID_2266&PID_0007(2)</USBConnectionRoute></ChronosDeviceInfo>;"<?xml version=""1.0""?>\n<Clock xmlns:dt=""urn:schemas-microsoft-com:datatypes""><Description dt:dt=""string"">E-Prime Primary Realtime Clock</Description><StartTime><Timestamp dt:dt=""int"">0</Timestamp><DateUtc dt:dt=""string"">2013-09-14T12:44:40Z</DateUtc></StartTime><FrequencyChanges><FrequencyChange><Frequency dt:dt=""r8"">3312832</Frequency><Timestamp dt:dt=""r8"">654813166601</Timestamp><Current dt:dt=""r8"">0</Current><DateUtc dt:dt=""string"">2013-09-14T12:44:40Z</DateUtc></FrequencyChange></FrequencyChanges></Clock>\n";EXP2.2_290421-1025-1;59.951;1.0.0.349;1;Chronos;1978712956;Full;3.0.3.80;3.0.3.80;09-14-2013;14/09/2013 12:44;14:44:40;3.0.3.82;2;Chronos;;2;1;2;TESTVV;Generalbloc;;;;pretest;Chronos;36;1;VV_290421/880.png;2;1;36;-20;blocVVstim;listVVTrial;;;;Chronos;0;;0;2;637507;200;;0;0;1;1;Chronos;0;0;637707;300;1;559;638266;1;1;Chronos;0;0;638007;0;1;259;638266;;;;;;;;;;;;;;;;;;;
EXP2.2_290421;1025;1;Chronos;<ChronosDeviceInfo><FriendlyName>MyChronos</FriendlyName><DeviceIndex>1</DeviceIndex><SerialNumber>CHR-04301-1186</SerialNumber><EBNVersion>3.0.3.80</EBNVersion><FirmwareVersion>1.33</FirmwareVersion><APIVersion>1.33</APIVersion><USBHostControllerVersion>2.0</USBHostControllerVersion><USBConnectionRoute>USB#ROOT_HUB20#4&f63975&0#{f18a0e88-c30c-11d0-8815-00a0c906bed8} + USB#VID_8087&PID_0024#5&365d106a&0&1#{f18a0e88-c30c-11d0-8815-00a0c906bed8}(1) + VID_2266&PID_0007(2)</USBConnectionRoute></ChronosDeviceInfo>;"<?xml version=""1.0""?>\n<Clock xmlns:dt=""urn:schemas-microsoft-com:datatypes""><Description dt:dt=""string"">E-Prime Primary Realtime Clock</Description><StartTime><Timestamp dt:dt=""int"">0</Timestamp><DateUtc dt:dt=""string"">2013-09-14T12:44:40Z</DateUtc></StartTime><FrequencyChanges><FrequencyChange><Frequency dt:dt=""r8"">3312832</Frequency><Timestamp dt:dt=""r8"">654813166601</Timestamp><Current dt:dt=""r8"">0</Current><DateUtc dt:dt=""string"">2013-09-14T12:44:40Z</DateUtc></FrequencyChange></FrequencyChanges></Clock>\n";EXP2.2_290421-1025-1;59.951;1.0.0.349;1;Chronos;1978712956;Full;3.0.3.80;3.0.3.80;09-14-2013;14/09/2013 12:44;14:44:40;3.0.3.82;2;Chronos;;2;1;2;TESTVV;Generalbloc;;;;pretest;Chronos;37;1;VV_290421/875.png;1;1;37;-25;blocVVstim;listVVTrial;;;;Chronos;0;;0;1;639792;200;;0;0;1;1;Chronos;0;0;639992;0;1;242;640234;0;;;-999999;0;0;0;;0;0;;;;;;;;;;;;;;;;;;;
EXP2.2_290421;1025;1;Chronos;<ChronosDeviceInfo><FriendlyName>MyChronos</FriendlyName><DeviceIndex>1</DeviceIndex><SerialNumber>CHR-04301-1186</SerialNumber><EBNVersion>3.0.3.80</EBNVersion><FirmwareVersion>1.33</FirmwareVersion><APIVersion>1.33</APIVersion><USBHostControllerVersion>2.0</USBHostControllerVersion><USBConnectionRoute>USB#ROOT_HUB20#4&f63975&0#{f18a0e88-c30c-11d0-8815-00a0c906bed8} + USB#VID_8087&PID_0024#5&365d106a&0&1#{f18a0e88-c30c-11d0-8815-00a0c906bed8}(1) + VID_2266&PID_0007(2)</USBConnectionRoute></ChronosDeviceInfo>;"<?xml version=""1.0""?>\n<Clock xmlns:dt=""urn:schemas-microsoft-com:datatypes""><Description dt:dt=""string"">E-Prime Primary Realtime Clock</Description><StartTime><Timestamp dt:dt=""int"">0</Timestamp><DateUtc dt:dt=""string"">2013-09-14T12:44:40Z</DateUtc></StartTime><FrequencyChanges><FrequencyChange><Frequency dt:dt=""r8"">3312832</Frequency><Timestamp dt:dt=""r8"">654813166601</Timestamp><Current dt:dt=""r8"">0</Current><DateUtc dt:dt=""string"">2013-09-14T12:44:40Z</DateUtc></FrequencyChange></FrequencyChanges></Clock>\n";EXP2.2_290421-1025-1;59.951;1.0.0.349;1;Chronos;1978712956;Full;3.0.3.80;3.0.3.80;09-14-2013;14/09/2013 12:44;14:44:40;3.0.3.82;2;Chronos;;2;1;2;TESTVV;Generalbloc;;;;pretest;Chronos;38;1;VV_290421/890.png;4;1;38;-10;blocVVstim;listVVTrial;;;;Chronos;0;;0;1;641760;200;;0;0;0;1;Chronos;0;0;641960;300;5;853;642813;0;1;Chronos;1;0;642260;0;5;553;642813;;;;;;;;;;;;;;;;;;;
EXP2.2_290421;1025;1;Chronos;<ChronosDeviceInfo><FriendlyName>MyChronos</FriendlyName><DeviceIndex>1</DeviceIndex><SerialNumber>CHR-04301-1186</SerialNumber><EBNVersion>3.0.3.80</EBNVersion><FirmwareVersion>1.33</FirmwareVersion><APIVersion>1.33</APIVersion><USBHostControllerVersion>2.0</USBHostControllerVersion><USBConnectionRoute>USB#ROOT_HUB20#4&f63975&0#{f18a0e88-c30c-11d0-8815-00a0c906bed8} + USB#VID_8087&PID_0024#5&365d106a&0&1#{f18a0e88-c30c-11d0-8815-00a0c906bed8}(1) + VID_2266&PID_0007(2)</USBConnectionRoute></ChronosDeviceInfo>;"<?xml version=""1.0""?>\n<Clock xmlns:dt=""urn:schemas-microsoft-com:datatypes""><Description dt:dt=""string"">E-Prime Primary Realtime Clock</Description><StartTime><Timestamp dt:dt=""int"">0</Timestamp><DateUtc dt:dt=""string"">2013-09-14T12:44:40Z</DateUtc></StartTime><FrequencyChanges><FrequencyChange><Frequency dt:dt=""r8"">3312832</Frequency><Timestamp dt:dt=""r8"">654813166601</Timestamp><Current dt:dt=""r8"">0</Current><DateUtc dt:dt=""string"">2013-09-14T12:44:40Z</DateUtc></FrequencyChange></FrequencyChanges></Clock>\n";EXP2.2_290421-1025-1;59.951;1.0.0.349;1;Chronos;1978712956;Full;3.0.3.80;3.0.3.80;09-14-2013;14/09/2013 12:44;14:44:40;3.0.3.82;2;Chronos;;2;1;2;TESTVV;Generalbloc;;;;pretest;Chronos;39;5;VV_290421/905.png;7;1;39;5;blocVVstim;listVVTrial;;;;Chronos;0;;0;2;644346;200;;0;0;1;5;Chronos;0;0;644546;300;5;719;645265;1;5;Chronos;0;0;644846;0;5;419;645265;;;;;;;;;;;;;;;;;;;
EXP2.2_290421;1025;1;Chronos;<ChronosDeviceInfo><FriendlyName>MyChronos</FriendlyName><DeviceIndex>1</DeviceIndex><SerialNumber>CHR-04301-1186</SerialNumber><EBNVersion>3.0.3.80</EBNVersion><FirmwareVersion>1.33</FirmwareVersion><APIVersion>1.33</APIVersion><USBHostControllerVersion>2.0</USBHostControllerVersion><USBConnectionRoute>USB#ROOT_HUB20#4&f63975&0#{f18a0e88-c30c-11d0-8815-00a0c906bed8} + USB#VID_8087&PID_0024#5&365d106a&0&1#{f18a0e88-c30c-11d0-8815-00a0c906bed8}(1) + VID_2266&PID_0007(2)</USBConnectionRoute></ChronosDeviceInfo>;"<?xml version=""1.0""?>\n<Clock xmlns:dt=""urn:schemas-microsoft-com:datatypes""><Description dt:dt=""string"">E-Prime Primary Realtime Clock</Description><StartTime><Timestamp dt:dt=""int"">0</Timestamp><DateUtc dt:dt=""string"">2013-09-14T12:44:40Z</DateUtc></StartTime><FrequencyChanges><FrequencyChange><Frequency dt:dt=""r8"">3312832</Frequency><Timestamp dt:dt=""r8"">654813166601</Timestamp><Current dt:dt=""r8"">0</Current><DateUtc dt:dt=""string"">2013-09-14T12:44:40Z</DateUtc></FrequencyChange></FrequencyChanges></Clock>\n";EXP2.2_290421-1025-1;59.951;1.0.0.349;1;Chronos;1978712956;Full;3.0.3.80;3.0.3.80;09-14-2013;14/09/2013 12:44;14:44:40;3.0.3.82;2;Chronos;;2;1;2;TESTVV;Generalbloc;;;;pretest;Chronos;40;5;VV_290421/920.png;10;1;40;20;blocVVstim;listVVTrial;;;;Chronos;0;;0;2;646798;200;;0;0;1;5;Chronos;0;0;646998;300;5;391;647389;1;5;Chronos;0;0;647298;0;5;91;647389;;;;;;;;;;;;;;;;;;;
EXP2.2_290421;1025;1;Chronos;<ChronosDeviceInfo><FriendlyName>MyChronos</FriendlyName><DeviceIndex>1</DeviceIndex><SerialNumber>CHR-04301-1186</SerialNumber><EBNVersion>3.0.3.80</EBNVersion><FirmwareVersion>1.33</FirmwareVersion><APIVersion>1.33</APIVersion><USBHostControllerVersion>2.0</USBHostControllerVersion><USBConnectionRoute>USB#ROOT_HUB20#4&f63975&0#{f18a0e88-c30c-11d0-8815-00a0c906bed8} + USB#VID_8087&PID_0024#5&365d106a&0&1#{f18a0e88-c30c-11d0-8815-00a0c906bed8}(1) + VID_2266&PID_0007(2)</USBConnectionRoute></ChronosDeviceInfo>;"<?xml version=""1.0""?>\n<Clock xmlns:dt=""urn:schemas-microsoft-com:datatypes""><Description dt:dt=""string"">E-Prime Primary Realtime Clock</Description><StartTime><Timestamp dt:dt=""int"">0</Timestamp><DateUtc dt:dt=""string"">2013-09-14T12:44:40Z</DateUtc></StartTime><FrequencyChanges><FrequencyChange><Frequency dt:dt=""r8"">3312832</Frequency><Timestamp dt:dt=""r8"">654813166601</Timestamp><Current dt:dt=""r8"">0</Current><DateUtc dt:dt=""string"">2013-09-14T12:44:40Z</DateUtc></FrequencyChange></FrequencyChanges></Clock>\n";EXP2.2_290421-1025-1;59.951;1.0.0.349;1;Chronos;1978712956;Full;3.0.3.80;3.0.3.80;09-14-2013;14/09/2013 12:44;14:44:40;3.0.3.82;2;Chronos;;2;1;2;TESTVV;Generalbloc;;;;pretest;Chronos;41;5;VV_290421/915.png;9;1;41;15;blocVVstim;listVVTrial;;;;Chronos;0;;0;1;648916;200;;0;0;1;5;Chronos;0;0;649116;300;5;427;649543;1;5;Chronos;0;0;649416;0;5;127;649543;;;;;;;;;;;;;;;;;;;
EXP2.2_290421;1025;1;Chronos;<ChronosDeviceInfo><FriendlyName>MyChronos</FriendlyName><DeviceIndex>1</DeviceIndex><SerialNumber>CHR-04301-1186</SerialNumber><EBNVersion>3.0.3.80</EBNVersion><FirmwareVersion>1.33</FirmwareVersion><APIVersion>1.33</APIVersion><USBHostControllerVersion>2.0</USBHostControllerVersion><USBConnectionRoute>USB#ROOT_HUB20#4&f63975&0#{f18a0e88-c30c-11d0-8815-00a0c906bed8} + USB#VID_8087&PID_0024#5&365d106a&0&1#{f18a0e88-c30c-11d0-8815-00a0c906bed8}(1) + VID_2266&PID_0007(2)</USBConnectionRoute></ChronosDeviceInfo>;"<?xml version=""1.0""?>\n<Clock xmlns:dt=""urn:schemas-microsoft-com:datatypes""><Description dt:dt=""string"">E-Prime Primary Realtime Clock</Description><StartTime><Timestamp dt:dt=""int"">0</Timestamp><DateUtc dt:dt=""string"">2013-09-14T12:44:40Z</DateUtc></StartTime><FrequencyChanges><FrequencyChange><Frequency dt:dt=""r8"">3312832</Frequency><Timestamp dt:dt=""r8"">654813166601</Timestamp><Current dt:dt=""r8"">0</Current><DateUtc dt:dt=""string"">2013-09-14T12:44:40Z</DateUtc></FrequencyChange></FrequencyChanges></Clock>\n";EXP2.2_290421-1025-1;59.951;1.0.0.349;1;Chronos;1978712956;Full;3.0.3.80;3.0.3.80;09-14-2013;14/09/2013 12:44;14:44:40;3.0.3.82;2;Chronos;;2;1;2;TESTVV;Generalbloc;;;;pretest;Chronos;42;1;VV_290421/875.png;1;1;42;-25;blocVVstim;listVVTrial;;;;Chronos;0;;0;1;651068;200;;0;0;1;1;Chronos;0;0;651268;0;1;184;651452;0;;;-999999;0;0;0;;0;0;;;;;;;;;;;;;;;;;;;
EXP2.2_290421;1025;1;Chronos;<ChronosDeviceInfo><FriendlyName>MyChronos</FriendlyName><DeviceIndex>1</DeviceIndex><SerialNumber>CHR-04301-1186</SerialNumber><EBNVersion>3.0.3.80</EBNVersion><FirmwareVersion>1.33</FirmwareVersion><APIVersion>1.33</APIVersion><USBHostControllerVersion>2.0</USBHostControllerVersion><USBConnectionRoute>USB#ROOT_HUB20#4&f63975&0#{f18a0e88-c30c-11d0-8815-00a0c906bed8} + USB#VID_8087&PID_0024#5&365d106a&0&1#{f18a0e88-c30c-11d0-8815-00a0c906bed8}(1) + VID_2266&PID_0007(2)</USBConnectionRoute></ChronosDeviceInfo>;"<?xml version=""1.0""?>\n<Clock xmlns:dt=""urn:schemas-microsoft-com:datatypes""><Description dt:dt=""string"">E-Prime Primary Realtime Clock</Description><StartTime><Timestamp dt:dt=""int"">0</Timestamp><DateUtc dt:dt=""string"">2013-09-14T12:44:40Z</DateUtc></StartTime><FrequencyChanges><FrequencyChange><Frequency dt:dt=""r8"">3312832</Frequency><Timestamp dt:dt=""r8"">654813166601</Timestamp><Current dt:dt=""r8"">0</Current><DateUtc dt:dt=""string"">2013-09-14T12:44:40Z</DateUtc></FrequencyChange></FrequencyChanges></Clock>\n";EXP2.2_290421-1025-1;59.951;1.0.0.349;1;Chronos;1978712956;Full;3.0.3.80;3.0.3.80;09-14-2013;14/09/2013 12:44;14:44:40;3.0.3.82;2;Chronos;;2;1;2;TESTVV;Generalbloc;;;;pretest;Chronos;43;5;VV_290421/925.png;11;1;43;25;blocVVstim;listVVTrial;;;;Chronos;0;;0;1;652986;200;;0;0;1;5;Chronos;0;0;653186;300;5;344;653530;1;5;Chronos;0;0;653486;0;5;44;653530;;;;;;;;;;;;;;;;;;;
EXP2.2_290421;1025;1;Chronos;<ChronosDeviceInfo><FriendlyName>MyChronos</FriendlyName><DeviceIndex>1</DeviceIndex><SerialNumber>CHR-04301-1186</SerialNumber><EBNVersion>3.0.3.80</EBNVersion><FirmwareVersion>1.33</FirmwareVersion><APIVersion>1.33</APIVersion><USBHostControllerVersion>2.0</USBHostControllerVersion><USBConnectionRoute>USB#ROOT_HUB20#4&f63975&0#{f18a0e88-c30c-11d0-8815-00a0c906bed8} + USB#VID_8087&PID_0024#5&365d106a&0&1#{f18a0e88-c30c-11d0-8815-00a0c906bed8}(1) + VID_2266&PID_0007(2)</USBConnectionRoute></ChronosDeviceInfo>;"<?xml version=""1.0""?>\n<Clock xmlns:dt=""urn:schemas-microsoft-com:datatypes""><Description dt:dt=""string"">E-Prime Primary Realtime Clock</Description><StartTime><Timestamp dt:dt=""int"">0</Timestamp><DateUtc dt:dt=""string"">2013-09-14T12:44:40Z</DateUtc></StartTime><FrequencyChanges><FrequencyChange><Frequency dt:dt=""r8"">3312832</Frequency><Timestamp dt:dt=""r8"">654813166601</Timestamp><Current dt:dt=""r8"">0</Current><DateUtc dt:dt=""string"">2013-09-14T12:44:40Z</DateUtc></FrequencyChange></FrequencyChanges></Clock>\n";EXP2.2_290421-1025-1;59.951;1.0.0.349;1;Chronos;1978712956;Full;3.0.3.80;3.0.3.80;09-14-2013;14/09/2013 12:44;14:44:40;3.0.3.82;2;Chronos;;2;1;2;TESTVV;Generalbloc;;;;pretest;Chronos;44;1;VV_290421/875.png;1;1;44;-25;blocVVstim;listVVTrial;;;;Chronos;0;;0;1;655054;201;;0;0;1;1;Chronos;0;1;655255;0;1;89;655344;0;;;-999999;0;0;0;;0;0;;;;;;;;;;;;;;;;;;;
EXP2.2_290421;1025;1;Chronos;<ChronosDeviceInfo><FriendlyName>MyChronos</FriendlyName><DeviceIndex>1</DeviceIndex><SerialNumber>CHR-04301-1186</SerialNumber><EBNVersion>3.0.3.80</EBNVersion><FirmwareVersion>1.33</FirmwareVersion><APIVersion>1.33</APIVersion><USBHostControllerVersion>2.0</USBHostControllerVersion><USBConnectionRoute>USB#ROOT_HUB20#4&f63975&0#{f18a0e88-c30c-11d0-8815-00a0c906bed8} + USB#VID_8087&PID_0024#5&365d106a&0&1#{f18a0e88-c30c-11d0-8815-00a0c906bed8}(1) + VID_2266&PID_0007(2)</USBConnectionRoute></ChronosDeviceInfo>;"<?xml version=""1.0""?>\n<Clock xmlns:dt=""urn:schemas-microsoft-com:datatypes""><Description dt:dt=""string"">E-Prime Primary Realtime Clock</Description><StartTime><Timestamp dt:dt=""int"">0</Timestamp><DateUtc dt:dt=""string"">2013-09-14T12:44:40Z</DateUtc></StartTime><FrequencyChanges><FrequencyChange><Frequency dt:dt=""r8"">3312832</Frequency><Timestamp dt:dt=""r8"">654813166601</Timestamp><Current dt:dt=""r8"">0</Current><DateUtc dt:dt=""string"">2013-09-14T12:44:40Z</DateUtc></FrequencyChange></FrequencyChanges></Clock>\n";EXP2.2_290421-1025-1;59.951;1.0.0.349;1;Chronos;1978712956;Full;3.0.3.80;3.0.3.80;09-14-2013;14/09/2013 12:44;14:44:40;3.0.3.82;2;Chronos;;2;1;2;TESTVV;Generalbloc;;;;pretest;Chronos;45;5;VV_290421/925.png;11;1;45;25;blocVVstim;listVVTrial;;;;Chronos;0;;0;2;656873;200;;0;0;1;5;Chronos;0;0;657073;0;5;106;657179;0;;;-999999;0;0;0;;0;0;;;;;;;;;;;;;;;;;;;
EXP2.2_290421;1025;1;Chronos;<ChronosDeviceInfo><FriendlyName>MyChronos</FriendlyName><DeviceIndex>1</DeviceIndex><SerialNumber>CHR-04301-1186</SerialNumber><EBNVersion>3.0.3.80</EBNVersion><FirmwareVersion>1.33</FirmwareVersion><APIVersion>1.33</APIVersion><USBHostControllerVersion>2.0</USBHostControllerVersion><USBConnectionRoute>USB#ROOT_HUB20#4&f63975&0#{f18a0e88-c30c-11d0-8815-00a0c906bed8} + USB#VID_8087&PID_0024#5&365d106a&0&1#{f18a0e88-c30c-11d0-8815-00a0c906bed8}(1) + VID_2266&PID_0007(2)</USBConnectionRoute></ChronosDeviceInfo>;"<?xml version=""1.0""?>\n<Clock xmlns:dt=""urn:schemas-microsoft-com:datatypes""><Description dt:dt=""string"">E-Prime Primary Realtime Clock</Description><StartTime><Timestamp dt:dt=""int"">0</Timestamp><DateUtc dt:dt=""string"">2013-09-14T12:44:40Z</DateUtc></StartTime><FrequencyChanges><FrequencyChange><Frequency dt:dt=""r8"">3312832</Frequency><Timestamp dt:dt=""r8"">654813166601</Timestamp><Current dt:dt=""r8"">0</Current><DateUtc dt:dt=""string"">2013-09-14T12:44:40Z</DateUtc></FrequencyChange></FrequencyChanges></Clock>\n";EXP2.2_290421-1025-1;59.951;1.0.0.349;1;Chronos;1978712956;Full;3.0.3.80;3.0.3.80;09-14-2013;14/09/2013 12:44;14:44:40;3.0.3.82;2;Chronos;;2;1;2;TESTVV;Generalbloc;;;;pretest;Chronos;46;5;VV_290421/920.png;10;1;46;20;blocVVstim;listVVTrial;;;;Chronos;0;;0;1;658707;201;;0;0;1;5;Chronos;0;1;658908;0;5;242;659150;0;;;-999999;0;0;0;;0;0;;;;;;;;;;;;;;;;;;;
EXP2.2_290421;1025;1;Chronos;<ChronosDeviceInfo><FriendlyName>MyChronos</FriendlyName><DeviceIndex>1</DeviceIndex><SerialNumber>CHR-04301-1186</SerialNumber><EBNVersion>3.0.3.80</EBNVersion><FirmwareVersion>1.33</FirmwareVersion><APIVersion>1.33</APIVersion><USBHostControllerVersion>2.0</USBHostControllerVersion><USBConnectionRoute>USB#ROOT_HUB20#4&f63975&0#{f18a0e88-c30c-11d0-8815-00a0c906bed8} + USB#VID_8087&PID_0024#5&365d106a&0&1#{f18a0e88-c30c-11d0-8815-00a0c906bed8}(1) + VID_2266&PID_0007(2)</USBConnectionRoute></ChronosDeviceInfo>;"<?xml version=""1.0""?>\n<Clock xmlns:dt=""urn:schemas-microsoft-com:datatypes""><Description dt:dt=""string"">E-Prime Primary Realtime Clock</Description><StartTime><Timestamp dt:dt=""int"">0</Timestamp><DateUtc dt:dt=""string"">2013-09-14T12:44:40Z</DateUtc></StartTime><FrequencyChanges><FrequencyChange><Frequency dt:dt=""r8"">3312832</Frequency><Timestamp dt:dt=""r8"">654813166601</Timestamp><Current dt:dt=""r8"">0</Current><DateUtc dt:dt=""string"">2013-09-14T12:44:40Z</DateUtc></FrequencyChange></FrequencyChanges></Clock>\n";EXP2.2_290421-1025-1;59.951;1.0.0.349;1;Chronos;1978712956;Full;3.0.3.80;3.0.3.80;09-14-2013;14/09/2013 12:44;14:44:40;3.0.3.82;2;Chronos;;2;1;2;TESTVV;Generalbloc;;;;pretest;Chronos;47;5;VV_290421/915.png;9;1;47;15;blocVVstim;listVVTrial;;;;Chronos;0;;0;2;660676;200;;0;0;1;5;Chronos;0;0;660876;0;5;266;661142;0;;;-999999;0;0;0;;0;0;;;;;;;;;;;;;;;;;;;
EXP2.2_290421;1025;1;Chronos;<ChronosDeviceInfo><FriendlyName>MyChronos</FriendlyName><DeviceIndex>1</DeviceIndex><SerialNumber>CHR-04301-1186</SerialNumber><EBNVersion>3.0.3.80</EBNVersion><FirmwareVersion>1.33</FirmwareVersion><APIVersion>1.33</APIVersion><USBHostControllerVersion>2.0</USBHostControllerVersion><USBConnectionRoute>USB#ROOT_HUB20#4&f63975&0#{f18a0e88-c30c-11d0-8815-00a0c906bed8} + USB#VID_8087&PID_0024#5&365d106a&0&1#{f18a0e88-c30c-11d0-8815-00a0c906bed8}(1) + VID_2266&PID_0007(2)</USBConnectionRoute></ChronosDeviceInfo>;"<?xml version=""1.0""?>\n<Clock xmlns:dt=""urn:schemas-microsoft-com:datatypes""><Description dt:dt=""string"">E-Prime Primary Realtime Clock</Description><StartTime><Timestamp dt:dt=""int"">0</Timestamp><DateUtc dt:dt=""string"">2013-09-14T12:44:40Z</DateUtc></StartTime><FrequencyChanges><FrequencyChange><Frequency dt:dt=""r8"">3312832</Frequency><Timestamp dt:dt=""r8"">654813166601</Timestamp><Current dt:dt=""r8"">0</Current><DateUtc dt:dt=""string"">2013-09-14T12:44:40Z</DateUtc></FrequencyChange></FrequencyChanges></Clock>\n";EXP2.2_290421-1025-1;59.951;1.0.0.349;1;Chronos;1978712956;Full;3.0.3.80;3.0.3.80;09-14-2013;14/09/2013 12:44;14:44:40;3.0.3.82;2;Chronos;;2;1;2;TESTVV;Generalbloc;;;;pretest;Chronos;48;1;VV_290421/895.png;5;1;48;-5;blocVVstim;listVVTrial;;;;Chronos;0;;0;1;662677;201;;0;0;1;1;Chronos;0;1;662878;0;1;161;663039;0;;;-999999;0;0;0;;0;0;;;;;;;;;;;;;;;;;;;
EXP2.2_290421;1025;1;Chronos;<ChronosDeviceInfo><FriendlyName>MyChronos</FriendlyName><DeviceIndex>1</DeviceIndex><SerialNumber>CHR-04301-1186</SerialNumber><EBNVersion>3.0.3.80</EBNVersion><FirmwareVersion>1.33</FirmwareVersion><APIVersion>1.33</APIVersion><USBHostControllerVersion>2.0</USBHostControllerVersion><USBConnectionRoute>USB#ROOT_HUB20#4&f63975&0#{f18a0e88-c30c-11d0-8815-00a0c906bed8} + USB#VID_8087&PID_0024#5&365d106a&0&1#{f18a0e88-c30c-11d0-8815-00a0c906bed8}(1) + VID_2266&PID_0007(2)</USBConnectionRoute></ChronosDeviceInfo>;"<?xml version=""1.0""?>\n<Clock xmlns:dt=""urn:schemas-microsoft-com:datatypes""><Description dt:dt=""string"">E-Prime Primary Realtime Clock</Description><StartTime><Timestamp dt:dt=""int"">0</Timestamp><DateUtc dt:dt=""string"">2013-09-14T12:44:40Z</DateUtc></StartTime><FrequencyChanges><FrequencyChange><Frequency dt:dt=""r8"">3312832</Frequency><Timestamp dt:dt=""r8"">654813166601</Timestamp><Current dt:dt=""r8"">0</Current><DateUtc dt:dt=""string"">2013-09-14T12:44:40Z</DateUtc></FrequencyChange></FrequencyChanges></Clock>\n";EXP2.2_290421-1025-1;59.951;1.0.0.349;1;Chronos;1978712956;Full;3.0.3.80;3.0.3.80;09-14-2013;14/09/2013 12:44;14:44:40;3.0.3.82;2;Chronos;;2;1;2;TESTVV;Generalbloc;;;;pretest;Chronos;49;5;VV_290421/925.png;11;1;49;25;blocVVstim;listVVTrial;;;;Chronos;0;;0;1;664562;200;;0;0;1;5;Chronos;0;0;664762;0;5;80;664842;0;;;-999999;0;0;0;;0;0;;;;;;;;;;;;;;;;;;;
EXP2.2_290421;1025;1;Chronos;<ChronosDeviceInfo><FriendlyName>MyChronos</FriendlyName><DeviceIndex>1</DeviceIndex><SerialNumber>CHR-04301-1186</SerialNumber><EBNVersion>3.0.3.80</EBNVersion><FirmwareVersion>1.33</FirmwareVersion><APIVersion>1.33</APIVersion><USBHostControllerVersion>2.0</USBHostControllerVersion><USBConnectionRoute>USB#ROOT_HUB20#4&f63975&0#{f18a0e88-c30c-11d0-8815-00a0c906bed8} + USB#VID_8087&PID_0024#5&365d106a&0&1#{f18a0e88-c30c-11d0-8815-00a0c906bed8}(1) + VID_2266&PID_0007(2)</USBConnectionRoute></ChronosDeviceInfo>;"<?xml version=""1.0""?>\n<Clock xmlns:dt=""urn:schemas-microsoft-com:datatypes""><Description dt:dt=""string"">E-Prime Primary Realtime Clock</Description><StartTime><Timestamp dt:dt=""int"">0</Timestamp><DateUtc dt:dt=""string"">2013-09-14T12:44:40Z</DateUtc></StartTime><FrequencyChanges><FrequencyChange><Frequency dt:dt=""r8"">3312832</Frequency><Timestamp dt:dt=""r8"">654813166601</Timestamp><Current dt:dt=""r8"">0</Current><DateUtc dt:dt=""string"">2013-09-14T12:44:40Z</DateUtc></FrequencyChange></FrequencyChanges></Clock>\n";EXP2.2_290421-1025-1;59.951;1.0.0.349;1;Chronos;1978712956;Full;3.0.3.80;3.0.3.80;09-14-2013;14/09/2013 12:44;14:44:40;3.0.3.82;2;Chronos;;2;1;2;TESTVV;Generalbloc;;;;pretest;Chronos;50;1;VV_290421/885.png;3;1;50;-15;blocVVstim;listVVTrial;;;;Chronos;0;;0;2;666364;200;;0;0;1;1;Chronos;0;0;666564;0;1;181;666745;0;;;-999999;0;0;0;;0;0;;;;;;;;;;;;;;;;;;;
EXP2.2_290421;1025;1;Chronos;<ChronosDeviceInfo><FriendlyName>MyChronos</FriendlyName><DeviceIndex>1</DeviceIndex><SerialNumber>CHR-04301-1186</SerialNumber><EBNVersion>3.0.3.80</EBNVersion><FirmwareVersion>1.33</FirmwareVersion><APIVersion>1.33</APIVersion><USBHostControllerVersion>2.0</USBHostControllerVersion><USBConnectionRoute>USB#ROOT_HUB20#4&f63975&0#{f18a0e88-c30c-11d0-8815-00a0c906bed8} + USB#VID_8087&PID_0024#5&365d106a&0&1#{f18a0e88-c30c-11d0-8815-00a0c906bed8}(1) + VID_2266&PID_0007(2)</USBConnectionRoute></ChronosDeviceInfo>;"<?xml version=""1.0""?>\n<Clock xmlns:dt=""urn:schemas-microsoft-com:datatypes""><Description dt:dt=""string"">E-Prime Primary Realtime Clock</Description><StartTime><Timestamp dt:dt=""int"">0</Timestamp><DateUtc dt:dt=""string"">2013-09-14T12:44:40Z</DateUtc></StartTime><FrequencyChanges><FrequencyChange><Frequency dt:dt=""r8"">3312832</Frequency><Timestamp dt:dt=""r8"">654813166601</Timestamp><Current dt:dt=""r8"">0</Current><DateUtc dt:dt=""string"">2013-09-14T12:44:40Z</DateUtc></FrequencyChange></FrequencyChanges></Clock>\n";EXP2.2_290421-1025-1;59.951;1.0.0.349;1;Chronos;1978712956;Full;3.0.3.80;3.0.3.80;09-14-2013;14/09/2013 12:44;14:44:40;3.0.3.82;2;Chronos;;2;1;2;TESTVV;Generalbloc;;;;pretest;Chronos;51;1;VV_290421/895.png;5;1;51;-5;blocVVstim;listVVTrial;;;;Chronos;0;;0;1;668265;200;;0;0;1;1;Chronos;1;0;668465;301;1;590;669055;1;1;Chronos;0;1;668766;0;1;289;669055;;;;;;;;;;;;;;;;;;;
EXP2.2_290421;1025;1;Chronos;<ChronosDeviceInfo><FriendlyName>MyChronos</FriendlyName><DeviceIndex>1</DeviceIndex><SerialNumber>CHR-04301-1186</SerialNumber><EBNVersion>3.0.3.80</EBNVersion><FirmwareVersion>1.33</FirmwareVersion><APIVersion>1.33</APIVersion><USBHostControllerVersion>2.0</USBHostControllerVersion><USBConnectionRoute>USB#ROOT_HUB20#4&f63975&0#{f18a0e88-c30c-11d0-8815-00a0c906bed8} + USB#VID_8087&PID_0024#5&365d106a&0&1#{f18a0e88-c30c-11d0-8815-00a0c906bed8}(1) + VID_2266&PID_0007(2)</USBConnectionRoute></ChronosDeviceInfo>;"<?xml version=""1.0""?>\n<Clock xmlns:dt=""urn:schemas-microsoft-com:datatypes""><Description dt:dt=""string"">E-Prime Primary Realtime Clock</Description><StartTime><Timestamp dt:dt=""int"">0</Timestamp><DateUtc dt:dt=""string"">2013-09-14T12:44:40Z</DateUtc></StartTime><FrequencyChanges><FrequencyChange><Frequency dt:dt=""r8"">3312832</Frequency><Timestamp dt:dt=""r8"">654813166601</Timestamp><Current dt:dt=""r8"">0</Current><DateUtc dt:dt=""string"">2013-09-14T12:44:40Z</DateUtc></FrequencyChange></FrequencyChanges></Clock>\n";EXP2.2_290421-1025-1;59.951;1.0.0.349;1;Chronos;1978712956;Full;3.0.3.80;3.0.3.80;09-14-2013;14/09/2013 12:44;14:44:40;3.0.3.82;2;Chronos;;2;1;2;TESTVV;Generalbloc;;;;pretest;Chronos;52;1;VV_290421/890.png;4;1;52;-10;blocVVstim;listVVTrial;;;;Chronos;0;;0;1;670584;200;;0;0;1;1;Chronos;0;0;670784;300;1;509;671293;1;1;Chronos;0;0;671084;0;1;209;671293;;;;;;;;;;;;;;;;;;;
EXP2.2_290421;1025;1;Chronos;<ChronosDeviceInfo><FriendlyName>MyChronos</FriendlyName><DeviceIndex>1</DeviceIndex><SerialNumber>CHR-04301-1186</SerialNumber><EBNVersion>3.0.3.80</EBNVersion><FirmwareVersion>1.33</FirmwareVersion><APIVersion>1.33</APIVersion><USBHostControllerVersion>2.0</USBHostControllerVersion><USBConnectionRoute>USB#ROOT_HUB20#4&f63975&0#{f18a0e88-c30c-11d0-8815-00a0c906bed8} + USB#VID_8087&PID_0024#5&365d106a&0&1#{f18a0e88-c30c-11d0-8815-00a0c906bed8}(1) + VID_2266&PID_0007(2)</USBConnectionRoute></ChronosDeviceInfo>;"<?xml version=""1.0""?>\n<Clock xmlns:dt=""urn:schemas-microsoft-com:datatypes""><Description dt:dt=""string"">E-Prime Primary Realtime Clock</Description><StartTime><Timestamp dt:dt=""int"">0</Timestamp><DateUtc dt:dt=""string"">2013-09-14T12:44:40Z</DateUtc></StartTime><FrequencyChanges><FrequencyChange><Frequency dt:dt=""r8"">3312832</Frequency><Timestamp dt:dt=""r8"">654813166601</Timestamp><Current dt:dt=""r8"">0</Current><DateUtc dt:dt=""string"">2013-09-14T12:44:40Z</DateUtc></FrequencyChange></FrequencyChanges></Clock>\n";EXP2.2_290421-1025-1;59.951;1.0.0.349;1;Chronos;1978712956;Full;3.0.3.80;3.0.3.80;09-14-2013;14/09/2013 12:44;14:44:40;3.0.3.82;2;Chronos;;2;1;2;TESTVV;Generalbloc;;;;pretest;Chronos;53;5;VV_290421/915.png;9;1;53;15;blocVVstim;listVVTrial;;;;Chronos;0;;0;1;672819;200;;0;0;1;5;Chronos;0;0;673019;0;5;170;673189;0;;;-999999;0;0;0;;0;0;;;;;;;;;;;;;;;;;;;
EXP2.2_290421;1025;1;Chronos;<ChronosDeviceInfo><FriendlyName>MyChronos</FriendlyName><DeviceIndex>1</DeviceIndex><SerialNumber>CHR-04301-1186</SerialNumber><EBNVersion>3.0.3.80</EBNVersion><FirmwareVersion>1.33</FirmwareVersion><APIVersion>1.33</APIVersion><USBHostControllerVersion>2.0</USBHostControllerVersion><USBConnectionRoute>USB#ROOT_HUB20#4&f63975&0#{f18a0e88-c30c-11d0-8815-00a0c906bed8} + USB#VID_8087&PID_0024#5&365d106a&0&1#{f18a0e88-c30c-11d0-8815-00a0c906bed8}(1) + VID_2266&PID_0007(2)</USBConnectionRoute></ChronosDeviceInfo>;"<?xml version=""1.0""?>\n<Clock xmlns:dt=""urn:schemas-microsoft-com:datatypes""><Description dt:dt=""string"">E-Prime Primary Realtime Clock</Description><StartTime><Timestamp dt:dt=""int"">0</Timestamp><DateUtc dt:dt=""string"">2013-09-14T12:44:40Z</DateUtc></StartTime><FrequencyChanges><FrequencyChange><Frequency dt:dt=""r8"">3312832</Frequency><Timestamp dt:dt=""r8"">654813166601</Timestamp><Current dt:dt=""r8"">0</Current><DateUtc dt:dt=""string"">2013-09-14T12:44:40Z</DateUtc></FrequencyChange></FrequencyChanges></Clock>\n";EXP2.2_290421-1025-1;59.951;1.0.0.349;1;Chronos;1978712956;Full;3.0.3.80;3.0.3.80;09-14-2013;14/09/2013 12:44;14:44:40;3.0.3.82;2;Chronos;;2;1;2;TESTVV;Generalbloc;;;;pretest;Chronos;54;1;VV_290421/875.png;1;1;54;-25;blocVVstim;listVVTrial;;;;Chronos;0;;0;2;674721;200;;0;0;1;1;Chronos;0;0;674921;0;1;274;675195;0;;;-999999;0;0;0;;0;0;;;;;;;;;;;;;;;;;;;
EXP2.2_290421;1025;1;Chronos;<ChronosDeviceInfo><FriendlyName>MyChronos</FriendlyName><DeviceIndex>1</DeviceIndex><SerialNumber>CHR-04301-1186</SerialNumber><EBNVersion>3.0.3.80</EBNVersion><FirmwareVersion>1.33</FirmwareVersion><APIVersion>1.33</APIVersion><USBHostControllerVersion>2.0</USBHostControllerVersion><USBConnectionRoute>USB#ROOT_HUB20#4&f63975&0#{f18a0e88-c30c-11d0-8815-00a0c906bed8} + USB#VID_8087&PID_0024#5&365d106a&0&1#{f18a0e88-c30c-11d0-8815-00a0c906bed8}(1) + VID_2266&PID_0007(2)</USBConnectionRoute></ChronosDeviceInfo>;"<?xml version=""1.0""?>\n<Clock xmlns:dt=""urn:schemas-microsoft-com:datatypes""><Description dt:dt=""string"">E-Prime Primary Realtime Clock</Description><StartTime><Timestamp dt:dt=""int"">0</Timestamp><DateUtc dt:dt=""string"">2013-09-14T12:44:40Z</DateUtc></StartTime><FrequencyChanges><FrequencyChange><Frequency dt:dt=""r8"">3312832</Frequency><Timestamp dt:dt=""r8"">654813166601</Timestamp><Current dt:dt=""r8"">0</Current><DateUtc dt:dt=""string"">2013-09-14T12:44:40Z</DateUtc></FrequencyChange></FrequencyChanges></Clock>\n";EXP2.2_290421-1025-1;59.951;1.0.0.349;1;Chronos;1978712956;Full;3.0.3.80;3.0.3.80;09-14-2013;14/09/2013 12:44;14:44:40;3.0.3.82;2;Chronos;;2;1;2;TESTVV;Generalbloc;;;;pretest;Chronos;55;1;VV_290421/880.png;2;1;55;-20;blocVVstim;listVVTrial;;;;Chronos;0;;0;1;676722;200;;0;0;1;1;Chronos;1;0;676922;0;1;245;677167;0;;;-999999;0;0;0;;0;0;;;;;;;;;;;;;;;;;;;
