ExperimentName;Subject;Session;calibrage.DEVICE[Session];Chronos.BoxInfo;Clock.Information;DataFile.Basename;Display.RefreshRate;ExperimentVersion;Group;Hello.DEVICE;RandomSeed;RuntimeCapabilities;RuntimeVersion;RuntimeVersionExpected;SessionDate;SessionStartDateTimeUtc;SessionTime;StudioVersion;Block;calibrage.DEVICE[Block];EndTraining.DEVICE;Generalbloc;Generalbloc.Cycle;Generalbloc.Sample;Procedure[Block];Running[Block];TextDisplay1.DEVICE;TextDisplay2.DEVICE;TextTraining.DEVICE;time;VVInst.DEVICE[Block];Trial;correct;image;listVVTrial;listVVTrial.Cycle;listVVTrial.Sample;offset;Procedure[Trial];Running[Trial];SpatialTaskTraining;SpatialTaskTraining.Cycle;SpatialTaskTraining.Sample;VVInst.DEVICE[Trial];vvstimnoresp.ACC;vvstimnoresp.CRESP;vvstimnoresp.DurationError;vvstimnoresp.OnsetDelay;vvstimnoresp.OnsetTime;vvstimnoresp.OnsetToOnsetTime;vvstimnoresp.RESP;vvstimnoresp.RT;vvstimnoresp.RTTime;vvstimresp1.ACC;vvstimresp1.CRESP;vvstimresp1.DEVICE;vvstimresp1.DurationError;vvstimresp1.OnsetDelay;vvstimresp1.OnsetTime;vvstimresp1.OnsetToOnsetTime;vvstimresp1.RESP;vvstimresp1.RT;vvstimresp1.RTTime;vvstimresp2.ACC;vvstimresp2.CRESP;vvstimresp2.DEVICE;vvstimresp2.DurationError;vvstimresp2.OnsetDelay;vvstimresp2.OnsetTime;vvstimresp2.OnsetToOnsetTime;vvstimresp2.RESP;vvstimresp2.RT;vvstimresp2.RTTime;SubTrial;LISTVVRANDOM1;LISTVVRANDOM1.Cycle;LISTVVRANDOM1.Sample;LISTVVRANDOM2;Procedure[SubTrial];Running[SubTrial];VVR;VVRANDOM;VVRANDOMRESP.ACC;VVRANDOMRESP.CRESP;VVRANDOMRESP.DEVICE;VVRANDOMRESP.DurationError;VVRANDOMRESP.OnsetDelay;VVRANDOMRESP.OnsetTime;VVRANDOMRESP.OnsetToOnsetTime;VVRANDOMRESP.RESP;VVRANDOMRESP.RT;VVRANDOMRESP.RTTime
EXP2.2_290421;1018;1;Chronos;<ChronosDeviceInfo><FriendlyName>MyChronos</FriendlyName><DeviceIndex>1</DeviceIndex><SerialNumber>CHR-04301-1186</SerialNumber><EBNVersion>3.0.3.80</EBNVersion><FirmwareVersion>1.33</FirmwareVersion><APIVersion>1.33</APIVersion><USBHostControllerVersion>2.0</USBHostControllerVersion><USBConnectionRoute>USB#ROOT_HUB20#4&9bd2e8a&0#{f18a0e88-c30c-11d0-8815-00a0c906bed8} + USB#VID_8087&PID_0024#5&3026c139&0&1#{f18a0e88-c30c-11d0-8815-00a0c906bed8}(1) + VID_2266&PID_0007(7)</USBConnectionRoute></ChronosDeviceInfo>;"<?xml version=""1.0""?>\n<Clock xmlns:dt=""urn:schemas-microsoft-com:datatypes""><Description dt:dt=""string"">E-Prime Primary Realtime Clock</Description><StartTime><Timestamp dt:dt=""int"">0</Timestamp><DateUtc dt:dt=""string"">2021-05-07T10:57:23Z</DateUtc></StartTime><FrequencyChanges><FrequencyChange><Frequency dt:dt=""r8"">2435576</Frequency><Timestamp dt:dt=""r8"">4273787204</Timestamp><Current dt:dt=""r8"">0</Current><DateUtc dt:dt=""string"">2021-05-07T10:57:23Z</DateUtc></FrequencyChange></FrequencyChanges></Clock>\n";EXP2.2_290421-1018-1;60.024;1.0.0.375;1;Chronos;-20701418;Full;3.0.3.80;3.0.3.80;05/07/2021;07/05/2021 10:57;12:57:23;3.0.3.82;1;Chronos;Chronos;1;1;1;Training;Generalbloc;;;Chronos;pretest;;1;;;;;;;TRAININGVV;SpatialTaskTraining;1;1;1;Chronos;;;;;;;;;;;;;;;;;;;;;;;;;;;;;;1;1;1;1;1;blocVVstimTraining;LISTVVRANDOM1;VV_290421/875.png;VV_290421/880.png;0;;Chronos;-999999;-1;558110;0;1;313;558423
EXP2.2_290421;1018;1;Chronos;<ChronosDeviceInfo><FriendlyName>MyChronos</FriendlyName><DeviceIndex>1</DeviceIndex><SerialNumber>CHR-04301-1186</SerialNumber><EBNVersion>3.0.3.80</EBNVersion><FirmwareVersion>1.33</FirmwareVersion><APIVersion>1.33</APIVersion><USBHostControllerVersion>2.0</USBHostControllerVersion><USBConnectionRoute>USB#ROOT_HUB20#4&9bd2e8a&0#{f18a0e88-c30c-11d0-8815-00a0c906bed8} + USB#VID_8087&PID_0024#5&3026c139&0&1#{f18a0e88-c30c-11d0-8815-00a0c906bed8}(1) + VID_2266&PID_0007(7)</USBConnectionRoute></ChronosDeviceInfo>;"<?xml version=""1.0""?>\n<Clock xmlns:dt=""urn:schemas-microsoft-com:datatypes""><Description dt:dt=""string"">E-Prime Primary Realtime Clock</Description><StartTime><Timestamp dt:dt=""int"">0</Timestamp><DateUtc dt:dt=""string"">2021-05-07T10:57:23Z</DateUtc></StartTime><FrequencyChanges><FrequencyChange><Frequency dt:dt=""r8"">2435576</Frequency><Timestamp dt:dt=""r8"">4273787204</Timestamp><Current dt:dt=""r8"">0</Current><DateUtc dt:dt=""string"">2021-05-07T10:57:23Z</DateUtc></FrequencyChange></FrequencyChanges></Clock>\n";EXP2.2_290421-1018-1;60.024;1.0.0.375;1;Chronos;-20701418;Full;3.0.3.80;3.0.3.80;05/07/2021;07/05/2021 10:57;12:57:23;3.0.3.82;1;Chronos;Chronos;1;1;1;Training;Generalbloc;;;Chronos;pretest;;1;;;;;;;TRAININGVV;SpatialTaskTraining;1;1;1;Chronos;;;;;;;;;;;;;;;;;;;;;;;;;;;;;;2;1;1;2;3;blocVVstimTraining;LISTVVRANDOM1;VV_290421/885.png;VV_290421/890.png;0;;Chronos;-999999;0;560443;0;1;408;560851
EXP2.2_290421;1018;1;Chronos;<ChronosDeviceInfo><FriendlyName>MyChronos</FriendlyName><DeviceIndex>1</DeviceIndex><SerialNumber>CHR-04301-1186</SerialNumber><EBNVersion>3.0.3.80</EBNVersion><FirmwareVersion>1.33</FirmwareVersion><APIVersion>1.33</APIVersion><USBHostControllerVersion>2.0</USBHostControllerVersion><USBConnectionRoute>USB#ROOT_HUB20#4&9bd2e8a&0#{f18a0e88-c30c-11d0-8815-00a0c906bed8} + USB#VID_8087&PID_0024#5&3026c139&0&1#{f18a0e88-c30c-11d0-8815-00a0c906bed8}(1) + VID_2266&PID_0007(7)</USBConnectionRoute></ChronosDeviceInfo>;"<?xml version=""1.0""?>\n<Clock xmlns:dt=""urn:schemas-microsoft-com:datatypes""><Description dt:dt=""string"">E-Prime Primary Realtime Clock</Description><StartTime><Timestamp dt:dt=""int"">0</Timestamp><DateUtc dt:dt=""string"">2021-05-07T10:57:23Z</DateUtc></StartTime><FrequencyChanges><FrequencyChange><Frequency dt:dt=""r8"">2435576</Frequency><Timestamp dt:dt=""r8"">4273787204</Timestamp><Current dt:dt=""r8"">0</Current><DateUtc dt:dt=""string"">2021-05-07T10:57:23Z</DateUtc></FrequencyChange></FrequencyChanges></Clock>\n";EXP2.2_290421-1018-1;60.024;1.0.0.375;1;Chronos;-20701418;Full;3.0.3.80;3.0.3.80;05/07/2021;07/05/2021 10:57;12:57:23;3.0.3.82;1;Chronos;Chronos;1;1;1;Training;Generalbloc;;;Chronos;pretest;;1;;;;;;;TRAININGVV;SpatialTaskTraining;1;1;1;Chronos;;;;;;;;;;;;;;;;;;;;;;;;;;;;;;3;1;1;3;5;blocVVstimTraining;LISTVVRANDOM1;VV_290421/895.png;VV_290421/900.png;0;;Chronos;-999999;0;562875;0;5;341;563216
EXP2.2_290421;1018;1;Chronos;<ChronosDeviceInfo><FriendlyName>MyChronos</FriendlyName><DeviceIndex>1</DeviceIndex><SerialNumber>CHR-04301-1186</SerialNumber><EBNVersion>3.0.3.80</EBNVersion><FirmwareVersion>1.33</FirmwareVersion><APIVersion>1.33</APIVersion><USBHostControllerVersion>2.0</USBHostControllerVersion><USBConnectionRoute>USB#ROOT_HUB20#4&9bd2e8a&0#{f18a0e88-c30c-11d0-8815-00a0c906bed8} + USB#VID_8087&PID_0024#5&3026c139&0&1#{f18a0e88-c30c-11d0-8815-00a0c906bed8}(1) + VID_2266&PID_0007(7)</USBConnectionRoute></ChronosDeviceInfo>;"<?xml version=""1.0""?>\n<Clock xmlns:dt=""urn:schemas-microsoft-com:datatypes""><Description dt:dt=""string"">E-Prime Primary Realtime Clock</Description><StartTime><Timestamp dt:dt=""int"">0</Timestamp><DateUtc dt:dt=""string"">2021-05-07T10:57:23Z</DateUtc></StartTime><FrequencyChanges><FrequencyChange><Frequency dt:dt=""r8"">2435576</Frequency><Timestamp dt:dt=""r8"">4273787204</Timestamp><Current dt:dt=""r8"">0</Current><DateUtc dt:dt=""string"">2021-05-07T10:57:23Z</DateUtc></FrequencyChange></FrequencyChanges></Clock>\n";EXP2.2_290421-1018-1;60.024;1.0.0.375;1;Chronos;-20701418;Full;3.0.3.80;3.0.3.80;05/07/2021;07/05/2021 10:57;12:57:23;3.0.3.82;1;Chronos;Chronos;1;1;1;Training;Generalbloc;;;Chronos;pretest;;1;;;;;;;TRAININGVV;SpatialTaskTraining;1;1;1;Chronos;;;;;;;;;;;;;;;;;;;;;;;;;;;;;;4;1;1;4;7;blocVVstimTraining;LISTVVRANDOM1;VV_290421/905.png;VV_290421/910.png;0;;Chronos;-999999;0;565241;0;5;312;565553
EXP2.2_290421;1018;1;Chronos;<ChronosDeviceInfo><FriendlyName>MyChronos</FriendlyName><DeviceIndex>1</DeviceIndex><SerialNumber>CHR-04301-1186</SerialNumber><EBNVersion>3.0.3.80</EBNVersion><FirmwareVersion>1.33</FirmwareVersion><APIVersion>1.33</APIVersion><USBHostControllerVersion>2.0</USBHostControllerVersion><USBConnectionRoute>USB#ROOT_HUB20#4&9bd2e8a&0#{f18a0e88-c30c-11d0-8815-00a0c906bed8} + USB#VID_8087&PID_0024#5&3026c139&0&1#{f18a0e88-c30c-11d0-8815-00a0c906bed8}(1) + VID_2266&PID_0007(7)</USBConnectionRoute></ChronosDeviceInfo>;"<?xml version=""1.0""?>\n<Clock xmlns:dt=""urn:schemas-microsoft-com:datatypes""><Description dt:dt=""string"">E-Prime Primary Realtime Clock</Description><StartTime><Timestamp dt:dt=""int"">0</Timestamp><DateUtc dt:dt=""string"">2021-05-07T10:57:23Z</DateUtc></StartTime><FrequencyChanges><FrequencyChange><Frequency dt:dt=""r8"">2435576</Frequency><Timestamp dt:dt=""r8"">4273787204</Timestamp><Current dt:dt=""r8"">0</Current><DateUtc dt:dt=""string"">2021-05-07T10:57:23Z</DateUtc></FrequencyChange></FrequencyChanges></Clock>\n";EXP2.2_290421-1018-1;60.024;1.0.0.375;1;Chronos;-20701418;Full;3.0.3.80;3.0.3.80;05/07/2021;07/05/2021 10:57;12:57:23;3.0.3.82;1;Chronos;Chronos;1;1;1;Training;Generalbloc;;;Chronos;pretest;;1;;;;;;;TRAININGVV;SpatialTaskTraining;1;1;1;Chronos;;;;;;;;;;;;;;;;;;;;;;;;;;;;;;5;1;1;5;9;blocVVstimTraining;LISTVVRANDOM1;VV_290421/915.png;VV_290421/920.png;0;;Chronos;-999999;0;567574;0;5;218;567792
EXP2.2_290421;1018;1;Chronos;<ChronosDeviceInfo><FriendlyName>MyChronos</FriendlyName><DeviceIndex>1</DeviceIndex><SerialNumber>CHR-04301-1186</SerialNumber><EBNVersion>3.0.3.80</EBNVersion><FirmwareVersion>1.33</FirmwareVersion><APIVersion>1.33</APIVersion><USBHostControllerVersion>2.0</USBHostControllerVersion><USBConnectionRoute>USB#ROOT_HUB20#4&9bd2e8a&0#{f18a0e88-c30c-11d0-8815-00a0c906bed8} + USB#VID_8087&PID_0024#5&3026c139&0&1#{f18a0e88-c30c-11d0-8815-00a0c906bed8}(1) + VID_2266&PID_0007(7)</USBConnectionRoute></ChronosDeviceInfo>;"<?xml version=""1.0""?>\n<Clock xmlns:dt=""urn:schemas-microsoft-com:datatypes""><Description dt:dt=""string"">E-Prime Primary Realtime Clock</Description><StartTime><Timestamp dt:dt=""int"">0</Timestamp><DateUtc dt:dt=""string"">2021-05-07T10:57:23Z</DateUtc></StartTime><FrequencyChanges><FrequencyChange><Frequency dt:dt=""r8"">2435576</Frequency><Timestamp dt:dt=""r8"">4273787204</Timestamp><Current dt:dt=""r8"">0</Current><DateUtc dt:dt=""string"">2021-05-07T10:57:23Z</DateUtc></FrequencyChange></FrequencyChanges></Clock>\n";EXP2.2_290421-1018-1;60.024;1.0.0.375;1;Chronos;-20701418;Full;3.0.3.80;3.0.3.80;05/07/2021;07/05/2021 10:57;12:57:23;3.0.3.82;1;Chronos;Chronos;1;1;1;Training;Generalbloc;;;Chronos;pretest;;1;;;;;;;TRAININGVV;SpatialTaskTraining;1;1;1;Chronos;;;;;;;;;;;;;;;;;;;;;;;;;;;;;;6;1;1;6;11;blocVVstimTraining;LISTVVRANDOM1;VV_290421/925.png;VV_290421/875.png;0;;Chronos;-999999;0;569806;0;1;269;570075
EXP2.2_290421;1018;1;Chronos;<ChronosDeviceInfo><FriendlyName>MyChronos</FriendlyName><DeviceIndex>1</DeviceIndex><SerialNumber>CHR-04301-1186</SerialNumber><EBNVersion>3.0.3.80</EBNVersion><FirmwareVersion>1.33</FirmwareVersion><APIVersion>1.33</APIVersion><USBHostControllerVersion>2.0</USBHostControllerVersion><USBConnectionRoute>USB#ROOT_HUB20#4&9bd2e8a&0#{f18a0e88-c30c-11d0-8815-00a0c906bed8} + USB#VID_8087&PID_0024#5&3026c139&0&1#{f18a0e88-c30c-11d0-8815-00a0c906bed8}(1) + VID_2266&PID_0007(7)</USBConnectionRoute></ChronosDeviceInfo>;"<?xml version=""1.0""?>\n<Clock xmlns:dt=""urn:schemas-microsoft-com:datatypes""><Description dt:dt=""string"">E-Prime Primary Realtime Clock</Description><StartTime><Timestamp dt:dt=""int"">0</Timestamp><DateUtc dt:dt=""string"">2021-05-07T10:57:23Z</DateUtc></StartTime><FrequencyChanges><FrequencyChange><Frequency dt:dt=""r8"">2435576</Frequency><Timestamp dt:dt=""r8"">4273787204</Timestamp><Current dt:dt=""r8"">0</Current><DateUtc dt:dt=""string"">2021-05-07T10:57:23Z</DateUtc></FrequencyChange></FrequencyChanges></Clock>\n";EXP2.2_290421-1018-1;60.024;1.0.0.375;1;Chronos;-20701418;Full;3.0.3.80;3.0.3.80;05/07/2021;07/05/2021 10:57;12:57:23;3.0.3.82;1;Chronos;Chronos;1;1;1;Training;Generalbloc;;;Chronos;pretest;;1;;;;;;;TRAININGVV;SpatialTaskTraining;1;1;1;Chronos;;;;;;;;;;;;;;;;;;;;;;;;;;;;;;7;1;1;7;2;blocVVstimTraining;LISTVVRANDOM1;VV_290421/880.png;VV_290421/885.png;0;;Chronos;-999999;0;572089;0;1;78;572167
EXP2.2_290421;1018;1;Chronos;<ChronosDeviceInfo><FriendlyName>MyChronos</FriendlyName><DeviceIndex>1</DeviceIndex><SerialNumber>CHR-04301-1186</SerialNumber><EBNVersion>3.0.3.80</EBNVersion><FirmwareVersion>1.33</FirmwareVersion><APIVersion>1.33</APIVersion><USBHostControllerVersion>2.0</USBHostControllerVersion><USBConnectionRoute>USB#ROOT_HUB20#4&9bd2e8a&0#{f18a0e88-c30c-11d0-8815-00a0c906bed8} + USB#VID_8087&PID_0024#5&3026c139&0&1#{f18a0e88-c30c-11d0-8815-00a0c906bed8}(1) + VID_2266&PID_0007(7)</USBConnectionRoute></ChronosDeviceInfo>;"<?xml version=""1.0""?>\n<Clock xmlns:dt=""urn:schemas-microsoft-com:datatypes""><Description dt:dt=""string"">E-Prime Primary Realtime Clock</Description><StartTime><Timestamp dt:dt=""int"">0</Timestamp><DateUtc dt:dt=""string"">2021-05-07T10:57:23Z</DateUtc></StartTime><FrequencyChanges><FrequencyChange><Frequency dt:dt=""r8"">2435576</Frequency><Timestamp dt:dt=""r8"">4273787204</Timestamp><Current dt:dt=""r8"">0</Current><DateUtc dt:dt=""string"">2021-05-07T10:57:23Z</DateUtc></FrequencyChange></FrequencyChanges></Clock>\n";EXP2.2_290421-1018-1;60.024;1.0.0.375;1;Chronos;-20701418;Full;3.0.3.80;3.0.3.80;05/07/2021;07/05/2021 10:57;12:57:23;3.0.3.82;1;Chronos;Chronos;1;1;1;Training;Generalbloc;;;Chronos;pretest;;1;;;;;;;TRAININGVV;SpatialTaskTraining;1;1;1;Chronos;;;;;;;;;;;;;;;;;;;;;;;;;;;;;;8;1;1;8;4;blocVVstimTraining;LISTVVRANDOM1;VV_290421/890.png;VV_290421/895.png;0;;Chronos;-999999;0;574188;0;1;319;574507
EXP2.2_290421;1018;1;Chronos;<ChronosDeviceInfo><FriendlyName>MyChronos</FriendlyName><DeviceIndex>1</DeviceIndex><SerialNumber>CHR-04301-1186</SerialNumber><EBNVersion>3.0.3.80</EBNVersion><FirmwareVersion>1.33</FirmwareVersion><APIVersion>1.33</APIVersion><USBHostControllerVersion>2.0</USBHostControllerVersion><USBConnectionRoute>USB#ROOT_HUB20#4&9bd2e8a&0#{f18a0e88-c30c-11d0-8815-00a0c906bed8} + USB#VID_8087&PID_0024#5&3026c139&0&1#{f18a0e88-c30c-11d0-8815-00a0c906bed8}(1) + VID_2266&PID_0007(7)</USBConnectionRoute></ChronosDeviceInfo>;"<?xml version=""1.0""?>\n<Clock xmlns:dt=""urn:schemas-microsoft-com:datatypes""><Description dt:dt=""string"">E-Prime Primary Realtime Clock</Description><StartTime><Timestamp dt:dt=""int"">0</Timestamp><DateUtc dt:dt=""string"">2021-05-07T10:57:23Z</DateUtc></StartTime><FrequencyChanges><FrequencyChange><Frequency dt:dt=""r8"">2435576</Frequency><Timestamp dt:dt=""r8"">4273787204</Timestamp><Current dt:dt=""r8"">0</Current><DateUtc dt:dt=""string"">2021-05-07T10:57:23Z</DateUtc></FrequencyChange></FrequencyChanges></Clock>\n";EXP2.2_290421-1018-1;60.024;1.0.0.375;1;Chronos;-20701418;Full;3.0.3.80;3.0.3.80;05/07/2021;07/05/2021 10:57;12:57:23;3.0.3.82;1;Chronos;Chronos;1;1;1;Training;Generalbloc;;;Chronos;pretest;;1;;;;;;;TRAININGVV;SpatialTaskTraining;1;1;1;Chronos;;;;;;;;;;;;;;;;;;;;;;;;;;;;;;9;1;1;9;6;blocVVstimTraining;LISTVVRANDOM1;VV_290421/900.png;VV_290421/905.png;0;;Chronos;-999999;0;576537;0;1;370;576907
EXP2.2_290421;1018;1;Chronos;<ChronosDeviceInfo><FriendlyName>MyChronos</FriendlyName><DeviceIndex>1</DeviceIndex><SerialNumber>CHR-04301-1186</SerialNumber><EBNVersion>3.0.3.80</EBNVersion><FirmwareVersion>1.33</FirmwareVersion><APIVersion>1.33</APIVersion><USBHostControllerVersion>2.0</USBHostControllerVersion><USBConnectionRoute>USB#ROOT_HUB20#4&9bd2e8a&0#{f18a0e88-c30c-11d0-8815-00a0c906bed8} + USB#VID_8087&PID_0024#5&3026c139&0&1#{f18a0e88-c30c-11d0-8815-00a0c906bed8}(1) + VID_2266&PID_0007(7)</USBConnectionRoute></ChronosDeviceInfo>;"<?xml version=""1.0""?>\n<Clock xmlns:dt=""urn:schemas-microsoft-com:datatypes""><Description dt:dt=""string"">E-Prime Primary Realtime Clock</Description><StartTime><Timestamp dt:dt=""int"">0</Timestamp><DateUtc dt:dt=""string"">2021-05-07T10:57:23Z</DateUtc></StartTime><FrequencyChanges><FrequencyChange><Frequency dt:dt=""r8"">2435576</Frequency><Timestamp dt:dt=""r8"">4273787204</Timestamp><Current dt:dt=""r8"">0</Current><DateUtc dt:dt=""string"">2021-05-07T10:57:23Z</DateUtc></FrequencyChange></FrequencyChanges></Clock>\n";EXP2.2_290421-1018-1;60.024;1.0.0.375;1;Chronos;-20701418;Full;3.0.3.80;3.0.3.80;05/07/2021;07/05/2021 10:57;12:57:23;3.0.3.82;1;Chronos;Chronos;1;1;1;Training;Generalbloc;;;Chronos;pretest;;1;;;;;;;TRAININGVV;SpatialTaskTraining;1;1;1;Chronos;;;;;;;;;;;;;;;;;;;;;;;;;;;;;;10;1;1;10;8;blocVVstimTraining;LISTVVRANDOM1;VV_290421/910.png;VV_290421/915.png;0;;Chronos;-999999;-1;578919;0;5;271;579190
EXP2.2_290421;1018;1;Chronos;<ChronosDeviceInfo><FriendlyName>MyChronos</FriendlyName><DeviceIndex>1</DeviceIndex><SerialNumber>CHR-04301-1186</SerialNumber><EBNVersion>3.0.3.80</EBNVersion><FirmwareVersion>1.33</FirmwareVersion><APIVersion>1.33</APIVersion><USBHostControllerVersion>2.0</USBHostControllerVersion><USBConnectionRoute>USB#ROOT_HUB20#4&9bd2e8a&0#{f18a0e88-c30c-11d0-8815-00a0c906bed8} + USB#VID_8087&PID_0024#5&3026c139&0&1#{f18a0e88-c30c-11d0-8815-00a0c906bed8}(1) + VID_2266&PID_0007(7)</USBConnectionRoute></ChronosDeviceInfo>;"<?xml version=""1.0""?>\n<Clock xmlns:dt=""urn:schemas-microsoft-com:datatypes""><Description dt:dt=""string"">E-Prime Primary Realtime Clock</Description><StartTime><Timestamp dt:dt=""int"">0</Timestamp><DateUtc dt:dt=""string"">2021-05-07T10:57:23Z</DateUtc></StartTime><FrequencyChanges><FrequencyChange><Frequency dt:dt=""r8"">2435576</Frequency><Timestamp dt:dt=""r8"">4273787204</Timestamp><Current dt:dt=""r8"">0</Current><DateUtc dt:dt=""string"">2021-05-07T10:57:23Z</DateUtc></FrequencyChange></FrequencyChanges></Clock>\n";EXP2.2_290421-1018-1;60.024;1.0.0.375;1;Chronos;-20701418;Full;3.0.3.80;3.0.3.80;05/07/2021;07/05/2021 10:57;12:57:23;3.0.3.82;2;Chronos;;2;1;2;TESTVV;Generalbloc;;;;pretest;Chronos;1;1;VV_290421/885.png;3;1;1;-15;blocVVstim;listVVTrial;;;;Chronos;0;;0;-1;667603;200;;0;0;1;1;Chronos;0;0;667803;300;1;348;668151;1;1;Chronos;0;0;668103;0;1;48;668151;;;;;;;;;;;;;;;;;;;
EXP2.2_290421;1018;1;Chronos;<ChronosDeviceInfo><FriendlyName>MyChronos</FriendlyName><DeviceIndex>1</DeviceIndex><SerialNumber>CHR-04301-1186</SerialNumber><EBNVersion>3.0.3.80</EBNVersion><FirmwareVersion>1.33</FirmwareVersion><APIVersion>1.33</APIVersion><USBHostControllerVersion>2.0</USBHostControllerVersion><USBConnectionRoute>USB#ROOT_HUB20#4&9bd2e8a&0#{f18a0e88-c30c-11d0-8815-00a0c906bed8} + USB#VID_8087&PID_0024#5&3026c139&0&1#{f18a0e88-c30c-11d0-8815-00a0c906bed8}(1) + VID_2266&PID_0007(7)</USBConnectionRoute></ChronosDeviceInfo>;"<?xml version=""1.0""?>\n<Clock xmlns:dt=""urn:schemas-microsoft-com:datatypes""><Description dt:dt=""string"">E-Prime Primary Realtime Clock</Description><StartTime><Timestamp dt:dt=""int"">0</Timestamp><DateUtc dt:dt=""string"">2021-05-07T10:57:23Z</DateUtc></StartTime><FrequencyChanges><FrequencyChange><Frequency dt:dt=""r8"">2435576</Frequency><Timestamp dt:dt=""r8"">4273787204</Timestamp><Current dt:dt=""r8"">0</Current><DateUtc dt:dt=""string"">2021-05-07T10:57:23Z</DateUtc></FrequencyChange></FrequencyChanges></Clock>\n";EXP2.2_290421-1018-1;60.024;1.0.0.375;1;Chronos;-20701418;Full;3.0.3.80;3.0.3.80;05/07/2021;07/05/2021 10:57;12:57:23;3.0.3.82;2;Chronos;;2;1;2;TESTVV;Generalbloc;;;;pretest;Chronos;2;5;VV_290421/925.png;11;1;2;25;blocVVstim;listVVTrial;;;;Chronos;0;;0;-1;669669;200;;0;0;1;5;Chronos;0;0;669869;300;5;476;670345;1;5;Chronos;0;0;670169;0;5;176;670345;;;;;;;;;;;;;;;;;;;
EXP2.2_290421;1018;1;Chronos;<ChronosDeviceInfo><FriendlyName>MyChronos</FriendlyName><DeviceIndex>1</DeviceIndex><SerialNumber>CHR-04301-1186</SerialNumber><EBNVersion>3.0.3.80</EBNVersion><FirmwareVersion>1.33</FirmwareVersion><APIVersion>1.33</APIVersion><USBHostControllerVersion>2.0</USBHostControllerVersion><USBConnectionRoute>USB#ROOT_HUB20#4&9bd2e8a&0#{f18a0e88-c30c-11d0-8815-00a0c906bed8} + USB#VID_8087&PID_0024#5&3026c139&0&1#{f18a0e88-c30c-11d0-8815-00a0c906bed8}(1) + VID_2266&PID_0007(7)</USBConnectionRoute></ChronosDeviceInfo>;"<?xml version=""1.0""?>\n<Clock xmlns:dt=""urn:schemas-microsoft-com:datatypes""><Description dt:dt=""string"">E-Prime Primary Realtime Clock</Description><StartTime><Timestamp dt:dt=""int"">0</Timestamp><DateUtc dt:dt=""string"">2021-05-07T10:57:23Z</DateUtc></StartTime><FrequencyChanges><FrequencyChange><Frequency dt:dt=""r8"">2435576</Frequency><Timestamp dt:dt=""r8"">4273787204</Timestamp><Current dt:dt=""r8"">0</Current><DateUtc dt:dt=""string"">2021-05-07T10:57:23Z</DateUtc></FrequencyChange></FrequencyChanges></Clock>\n";EXP2.2_290421-1018-1;60.024;1.0.0.375;1;Chronos;-20701418;Full;3.0.3.80;3.0.3.80;05/07/2021;07/05/2021 10:57;12:57:23;3.0.3.82;2;Chronos;;2;1;2;TESTVV;Generalbloc;;;;pretest;Chronos;3;1;VV_290421/875.png;1;1;3;-25;blocVVstim;listVVTrial;;;;Chronos;0;;0;-1;671868;200;;0;0;1;1;Chronos;0;0;672068;300;1;345;672413;1;1;Chronos;0;0;672368;0;1;45;672413;;;;;;;;;;;;;;;;;;;
EXP2.2_290421;1018;1;Chronos;<ChronosDeviceInfo><FriendlyName>MyChronos</FriendlyName><DeviceIndex>1</DeviceIndex><SerialNumber>CHR-04301-1186</SerialNumber><EBNVersion>3.0.3.80</EBNVersion><FirmwareVersion>1.33</FirmwareVersion><APIVersion>1.33</APIVersion><USBHostControllerVersion>2.0</USBHostControllerVersion><USBConnectionRoute>USB#ROOT_HUB20#4&9bd2e8a&0#{f18a0e88-c30c-11d0-8815-00a0c906bed8} + USB#VID_8087&PID_0024#5&3026c139&0&1#{f18a0e88-c30c-11d0-8815-00a0c906bed8}(1) + VID_2266&PID_0007(7)</USBConnectionRoute></ChronosDeviceInfo>;"<?xml version=""1.0""?>\n<Clock xmlns:dt=""urn:schemas-microsoft-com:datatypes""><Description dt:dt=""string"">E-Prime Primary Realtime Clock</Description><StartTime><Timestamp dt:dt=""int"">0</Timestamp><DateUtc dt:dt=""string"">2021-05-07T10:57:23Z</DateUtc></StartTime><FrequencyChanges><FrequencyChange><Frequency dt:dt=""r8"">2435576</Frequency><Timestamp dt:dt=""r8"">4273787204</Timestamp><Current dt:dt=""r8"">0</Current><DateUtc dt:dt=""string"">2021-05-07T10:57:23Z</DateUtc></FrequencyChange></FrequencyChanges></Clock>\n";EXP2.2_290421-1018-1;60.024;1.0.0.375;1;Chronos;-20701418;Full;3.0.3.80;3.0.3.80;05/07/2021;07/05/2021 10:57;12:57:23;3.0.3.82;2;Chronos;;2;1;2;TESTVV;Generalbloc;;;;pretest;Chronos;4;1;VV_290421/880.png;2;1;4;-20;blocVVstim;listVVTrial;;;;Chronos;0;;0;-1;673934;200;;0;0;1;1;Chronos;0;0;674134;300;1;321;674455;1;1;Chronos;0;0;674434;0;1;21;674455;;;;;;;;;;;;;;;;;;;
EXP2.2_290421;1018;1;Chronos;<ChronosDeviceInfo><FriendlyName>MyChronos</FriendlyName><DeviceIndex>1</DeviceIndex><SerialNumber>CHR-04301-1186</SerialNumber><EBNVersion>3.0.3.80</EBNVersion><FirmwareVersion>1.33</FirmwareVersion><APIVersion>1.33</APIVersion><USBHostControllerVersion>2.0</USBHostControllerVersion><USBConnectionRoute>USB#ROOT_HUB20#4&9bd2e8a&0#{f18a0e88-c30c-11d0-8815-00a0c906bed8} + USB#VID_8087&PID_0024#5&3026c139&0&1#{f18a0e88-c30c-11d0-8815-00a0c906bed8}(1) + VID_2266&PID_0007(7)</USBConnectionRoute></ChronosDeviceInfo>;"<?xml version=""1.0""?>\n<Clock xmlns:dt=""urn:schemas-microsoft-com:datatypes""><Description dt:dt=""string"">E-Prime Primary Realtime Clock</Description><StartTime><Timestamp dt:dt=""int"">0</Timestamp><DateUtc dt:dt=""string"">2021-05-07T10:57:23Z</DateUtc></StartTime><FrequencyChanges><FrequencyChange><Frequency dt:dt=""r8"">2435576</Frequency><Timestamp dt:dt=""r8"">4273787204</Timestamp><Current dt:dt=""r8"">0</Current><DateUtc dt:dt=""string"">2021-05-07T10:57:23Z</DateUtc></FrequencyChange></FrequencyChanges></Clock>\n";EXP2.2_290421-1018-1;60.024;1.0.0.375;1;Chronos;-20701418;Full;3.0.3.80;3.0.3.80;05/07/2021;07/05/2021 10:57;12:57:23;3.0.3.82;2;Chronos;;2;1;2;TESTVV;Generalbloc;;;;pretest;Chronos;5;1;VV_290421/885.png;3;1;5;-15;blocVVstim;listVVTrial;;;;Chronos;0;;1;-1;675983;200;;0;0;1;1;Chronos;1;0;676183;300;1;329;676512;1;1;Chronos;0;0;676483;0;1;29;676512;;;;;;;;;;;;;;;;;;;
EXP2.2_290421;1018;1;Chronos;<ChronosDeviceInfo><FriendlyName>MyChronos</FriendlyName><DeviceIndex>1</DeviceIndex><SerialNumber>CHR-04301-1186</SerialNumber><EBNVersion>3.0.3.80</EBNVersion><FirmwareVersion>1.33</FirmwareVersion><APIVersion>1.33</APIVersion><USBHostControllerVersion>2.0</USBHostControllerVersion><USBConnectionRoute>USB#ROOT_HUB20#4&9bd2e8a&0#{f18a0e88-c30c-11d0-8815-00a0c906bed8} + USB#VID_8087&PID_0024#5&3026c139&0&1#{f18a0e88-c30c-11d0-8815-00a0c906bed8}(1) + VID_2266&PID_0007(7)</USBConnectionRoute></ChronosDeviceInfo>;"<?xml version=""1.0""?>\n<Clock xmlns:dt=""urn:schemas-microsoft-com:datatypes""><Description dt:dt=""string"">E-Prime Primary Realtime Clock</Description><StartTime><Timestamp dt:dt=""int"">0</Timestamp><DateUtc dt:dt=""string"">2021-05-07T10:57:23Z</DateUtc></StartTime><FrequencyChanges><FrequencyChange><Frequency dt:dt=""r8"">2435576</Frequency><Timestamp dt:dt=""r8"">4273787204</Timestamp><Current dt:dt=""r8"">0</Current><DateUtc dt:dt=""string"">2021-05-07T10:57:23Z</DateUtc></FrequencyChange></FrequencyChanges></Clock>\n";EXP2.2_290421-1018-1;60.024;1.0.0.375;1;Chronos;-20701418;Full;3.0.3.80;3.0.3.80;05/07/2021;07/05/2021 10:57;12:57:23;3.0.3.82;2;Chronos;;2;1;2;TESTVV;Generalbloc;;;;pretest;Chronos;6;15;VV_290421/900.png;6;1;6;0;blocVVstim;listVVTrial;;;;Chronos;0;;0;0;678033;200;;0;0;0;15;Chronos;0;0;678233;300;1;495;678728;0;15;Chronos;0;0;678533;0;1;195;678728;;;;;;;;;;;;;;;;;;;
EXP2.2_290421;1018;1;Chronos;<ChronosDeviceInfo><FriendlyName>MyChronos</FriendlyName><DeviceIndex>1</DeviceIndex><SerialNumber>CHR-04301-1186</SerialNumber><EBNVersion>3.0.3.80</EBNVersion><FirmwareVersion>1.33</FirmwareVersion><APIVersion>1.33</APIVersion><USBHostControllerVersion>2.0</USBHostControllerVersion><USBConnectionRoute>USB#ROOT_HUB20#4&9bd2e8a&0#{f18a0e88-c30c-11d0-8815-00a0c906bed8} + USB#VID_8087&PID_0024#5&3026c139&0&1#{f18a0e88-c30c-11d0-8815-00a0c906bed8}(1) + VID_2266&PID_0007(7)</USBConnectionRoute></ChronosDeviceInfo>;"<?xml version=""1.0""?>\n<Clock xmlns:dt=""urn:schemas-microsoft-com:datatypes""><Description dt:dt=""string"">E-Prime Primary Realtime Clock</Description><StartTime><Timestamp dt:dt=""int"">0</Timestamp><DateUtc dt:dt=""string"">2021-05-07T10:57:23Z</DateUtc></StartTime><FrequencyChanges><FrequencyChange><Frequency dt:dt=""r8"">2435576</Frequency><Timestamp dt:dt=""r8"">4273787204</Timestamp><Current dt:dt=""r8"">0</Current><DateUtc dt:dt=""string"">2021-05-07T10:57:23Z</DateUtc></FrequencyChange></FrequencyChanges></Clock>\n";EXP2.2_290421-1018-1;60.024;1.0.0.375;1;Chronos;-20701418;Full;3.0.3.80;3.0.3.80;05/07/2021;07/05/2021 10:57;12:57:23;3.0.3.82;2;Chronos;;2;1;2;TESTVV;Generalbloc;;;;pretest;Chronos;7;15;VV_290421/900.png;6;1;7;0;blocVVstim;listVVTrial;;;;Chronos;0;;0;0;680249;199;;0;0;0;15;Chronos;1;-1;680448;300;5;448;680896;0;15;Chronos;1;0;680748;0;5;148;680896;;;;;;;;;;;;;;;;;;;
EXP2.2_290421;1018;1;Chronos;<ChronosDeviceInfo><FriendlyName>MyChronos</FriendlyName><DeviceIndex>1</DeviceIndex><SerialNumber>CHR-04301-1186</SerialNumber><EBNVersion>3.0.3.80</EBNVersion><FirmwareVersion>1.33</FirmwareVersion><APIVersion>1.33</APIVersion><USBHostControllerVersion>2.0</USBHostControllerVersion><USBConnectionRoute>USB#ROOT_HUB20#4&9bd2e8a&0#{f18a0e88-c30c-11d0-8815-00a0c906bed8} + USB#VID_8087&PID_0024#5&3026c139&0&1#{f18a0e88-c30c-11d0-8815-00a0c906bed8}(1) + VID_2266&PID_0007(7)</USBConnectionRoute></ChronosDeviceInfo>;"<?xml version=""1.0""?>\n<Clock xmlns:dt=""urn:schemas-microsoft-com:datatypes""><Description dt:dt=""string"">E-Prime Primary Realtime Clock</Description><StartTime><Timestamp dt:dt=""int"">0</Timestamp><DateUtc dt:dt=""string"">2021-05-07T10:57:23Z</DateUtc></StartTime><FrequencyChanges><FrequencyChange><Frequency dt:dt=""r8"">2435576</Frequency><Timestamp dt:dt=""r8"">4273787204</Timestamp><Current dt:dt=""r8"">0</Current><DateUtc dt:dt=""string"">2021-05-07T10:57:23Z</DateUtc></FrequencyChange></FrequencyChanges></Clock>\n";EXP2.2_290421-1018-1;60.024;1.0.0.375;1;Chronos;-20701418;Full;3.0.3.80;3.0.3.80;05/07/2021;07/05/2021 10:57;12:57:23;3.0.3.82;2;Chronos;;2;1;2;TESTVV;Generalbloc;;;;pretest;Chronos;8;15;VV_290421/900.png;6;1;8;0;blocVVstim;listVVTrial;;;;Chronos;0;;1;-1;682414;200;;0;0;0;15;Chronos;1;0;682614;300;1;592;683206;0;15;Chronos;0;0;682914;0;1;292;683206;;;;;;;;;;;;;;;;;;;
EXP2.2_290421;1018;1;Chronos;<ChronosDeviceInfo><FriendlyName>MyChronos</FriendlyName><DeviceIndex>1</DeviceIndex><SerialNumber>CHR-04301-1186</SerialNumber><EBNVersion>3.0.3.80</EBNVersion><FirmwareVersion>1.33</FirmwareVersion><APIVersion>1.33</APIVersion><USBHostControllerVersion>2.0</USBHostControllerVersion><USBConnectionRoute>USB#ROOT_HUB20#4&9bd2e8a&0#{f18a0e88-c30c-11d0-8815-00a0c906bed8} + USB#VID_8087&PID_0024#5&3026c139&0&1#{f18a0e88-c30c-11d0-8815-00a0c906bed8}(1) + VID_2266&PID_0007(7)</USBConnectionRoute></ChronosDeviceInfo>;"<?xml version=""1.0""?>\n<Clock xmlns:dt=""urn:schemas-microsoft-com:datatypes""><Description dt:dt=""string"">E-Prime Primary Realtime Clock</Description><StartTime><Timestamp dt:dt=""int"">0</Timestamp><DateUtc dt:dt=""string"">2021-05-07T10:57:23Z</DateUtc></StartTime><FrequencyChanges><FrequencyChange><Frequency dt:dt=""r8"">2435576</Frequency><Timestamp dt:dt=""r8"">4273787204</Timestamp><Current dt:dt=""r8"">0</Current><DateUtc dt:dt=""string"">2021-05-07T10:57:23Z</DateUtc></FrequencyChange></FrequencyChanges></Clock>\n";EXP2.2_290421-1018-1;60.024;1.0.0.375;1;Chronos;-20701418;Full;3.0.3.80;3.0.3.80;05/07/2021;07/05/2021 10:57;12:57:23;3.0.3.82;2;Chronos;;2;1;2;TESTVV;Generalbloc;;;;pretest;Chronos;9;1;VV_290421/895.png;5;1;9;-5;blocVVstim;listVVTrial;;;;Chronos;0;;0;-1;684730;200;;0;0;1;1;Chronos;0;0;684930;300;1;549;685479;1;1;Chronos;0;0;685230;0;1;249;685479;;;;;;;;;;;;;;;;;;;
EXP2.2_290421;1018;1;Chronos;<ChronosDeviceInfo><FriendlyName>MyChronos</FriendlyName><DeviceIndex>1</DeviceIndex><SerialNumber>CHR-04301-1186</SerialNumber><EBNVersion>3.0.3.80</EBNVersion><FirmwareVersion>1.33</FirmwareVersion><APIVersion>1.33</APIVersion><USBHostControllerVersion>2.0</USBHostControllerVersion><USBConnectionRoute>USB#ROOT_HUB20#4&9bd2e8a&0#{f18a0e88-c30c-11d0-8815-00a0c906bed8} + USB#VID_8087&PID_0024#5&3026c139&0&1#{f18a0e88-c30c-11d0-8815-00a0c906bed8}(1) + VID_2266&PID_0007(7)</USBConnectionRoute></ChronosDeviceInfo>;"<?xml version=""1.0""?>\n<Clock xmlns:dt=""urn:schemas-microsoft-com:datatypes""><Description dt:dt=""string"">E-Prime Primary Realtime Clock</Description><StartTime><Timestamp dt:dt=""int"">0</Timestamp><DateUtc dt:dt=""string"">2021-05-07T10:57:23Z</DateUtc></StartTime><FrequencyChanges><FrequencyChange><Frequency dt:dt=""r8"">2435576</Frequency><Timestamp dt:dt=""r8"">4273787204</Timestamp><Current dt:dt=""r8"">0</Current><DateUtc dt:dt=""string"">2021-05-07T10:57:23Z</DateUtc></FrequencyChange></FrequencyChanges></Clock>\n";EXP2.2_290421-1018-1;60.024;1.0.0.375;1;Chronos;-20701418;Full;3.0.3.80;3.0.3.80;05/07/2021;07/05/2021 10:57;12:57:23;3.0.3.82;2;Chronos;;2;1;2;TESTVV;Generalbloc;;;;pretest;Chronos;10;5;VV_290421/905.png;7;1;10;5;blocVVstim;listVVTrial;;;;Chronos;0;;0;-1;686996;200;;0;0;1;5;Chronos;0;0;687196;300;5;742;687938;1;5;Chronos;0;0;687496;0;5;442;687938;;;;;;;;;;;;;;;;;;;
EXP2.2_290421;1018;1;Chronos;<ChronosDeviceInfo><FriendlyName>MyChronos</FriendlyName><DeviceIndex>1</DeviceIndex><SerialNumber>CHR-04301-1186</SerialNumber><EBNVersion>3.0.3.80</EBNVersion><FirmwareVersion>1.33</FirmwareVersion><APIVersion>1.33</APIVersion><USBHostControllerVersion>2.0</USBHostControllerVersion><USBConnectionRoute>USB#ROOT_HUB20#4&9bd2e8a&0#{f18a0e88-c30c-11d0-8815-00a0c906bed8} + USB#VID_8087&PID_0024#5&3026c139&0&1#{f18a0e88-c30c-11d0-8815-00a0c906bed8}(1) + VID_2266&PID_0007(7)</USBConnectionRoute></ChronosDeviceInfo>;"<?xml version=""1.0""?>\n<Clock xmlns:dt=""urn:schemas-microsoft-com:datatypes""><Description dt:dt=""string"">E-Prime Primary Realtime Clock</Description><StartTime><Timestamp dt:dt=""int"">0</Timestamp><DateUtc dt:dt=""string"">2021-05-07T10:57:23Z</DateUtc></StartTime><FrequencyChanges><FrequencyChange><Frequency dt:dt=""r8"">2435576</Frequency><Timestamp dt:dt=""r8"">4273787204</Timestamp><Current dt:dt=""r8"">0</Current><DateUtc dt:dt=""string"">2021-05-07T10:57:23Z</DateUtc></FrequencyChange></FrequencyChanges></Clock>\n";EXP2.2_290421-1018-1;60.024;1.0.0.375;1;Chronos;-20701418;Full;3.0.3.80;3.0.3.80;05/07/2021;07/05/2021 10:57;12:57:23;3.0.3.82;2;Chronos;;2;1;2;TESTVV;Generalbloc;;;;pretest;Chronos;11;1;VV_290421/880.png;2;1;11;-20;blocVVstim;listVVTrial;;;;Chronos;0;;0;0;689462;200;;0;0;1;1;Chronos;0;0;689662;300;1;517;690179;1;1;Chronos;0;0;689962;0;1;217;690179;;;;;;;;;;;;;;;;;;;
EXP2.2_290421;1018;1;Chronos;<ChronosDeviceInfo><FriendlyName>MyChronos</FriendlyName><DeviceIndex>1</DeviceIndex><SerialNumber>CHR-04301-1186</SerialNumber><EBNVersion>3.0.3.80</EBNVersion><FirmwareVersion>1.33</FirmwareVersion><APIVersion>1.33</APIVersion><USBHostControllerVersion>2.0</USBHostControllerVersion><USBConnectionRoute>USB#ROOT_HUB20#4&9bd2e8a&0#{f18a0e88-c30c-11d0-8815-00a0c906bed8} + USB#VID_8087&PID_0024#5&3026c139&0&1#{f18a0e88-c30c-11d0-8815-00a0c906bed8}(1) + VID_2266&PID_0007(7)</USBConnectionRoute></ChronosDeviceInfo>;"<?xml version=""1.0""?>\n<Clock xmlns:dt=""urn:schemas-microsoft-com:datatypes""><Description dt:dt=""string"">E-Prime Primary Realtime Clock</Description><StartTime><Timestamp dt:dt=""int"">0</Timestamp><DateUtc dt:dt=""string"">2021-05-07T10:57:23Z</DateUtc></StartTime><FrequencyChanges><FrequencyChange><Frequency dt:dt=""r8"">2435576</Frequency><Timestamp dt:dt=""r8"">4273787204</Timestamp><Current dt:dt=""r8"">0</Current><DateUtc dt:dt=""string"">2021-05-07T10:57:23Z</DateUtc></FrequencyChange></FrequencyChanges></Clock>\n";EXP2.2_290421-1018-1;60.024;1.0.0.375;1;Chronos;-20701418;Full;3.0.3.80;3.0.3.80;05/07/2021;07/05/2021 10:57;12:57:23;3.0.3.82;2;Chronos;;2;1;2;TESTVV;Generalbloc;;;;pretest;Chronos;12;5;VV_290421/905.png;7;1;12;5;blocVVstim;listVVTrial;;;;Chronos;0;;0;-1;691694;200;;0;0;0;5;Chronos;0;0;691894;300;1;469;692363;0;5;Chronos;0;0;692194;0;1;169;692363;;;;;;;;;;;;;;;;;;;
EXP2.2_290421;1018;1;Chronos;<ChronosDeviceInfo><FriendlyName>MyChronos</FriendlyName><DeviceIndex>1</DeviceIndex><SerialNumber>CHR-04301-1186</SerialNumber><EBNVersion>3.0.3.80</EBNVersion><FirmwareVersion>1.33</FirmwareVersion><APIVersion>1.33</APIVersion><USBHostControllerVersion>2.0</USBHostControllerVersion><USBConnectionRoute>USB#ROOT_HUB20#4&9bd2e8a&0#{f18a0e88-c30c-11d0-8815-00a0c906bed8} + USB#VID_8087&PID_0024#5&3026c139&0&1#{f18a0e88-c30c-11d0-8815-00a0c906bed8}(1) + VID_2266&PID_0007(7)</USBConnectionRoute></ChronosDeviceInfo>;"<?xml version=""1.0""?>\n<Clock xmlns:dt=""urn:schemas-microsoft-com:datatypes""><Description dt:dt=""string"">E-Prime Primary Realtime Clock</Description><StartTime><Timestamp dt:dt=""int"">0</Timestamp><DateUtc dt:dt=""string"">2021-05-07T10:57:23Z</DateUtc></StartTime><FrequencyChanges><FrequencyChange><Frequency dt:dt=""r8"">2435576</Frequency><Timestamp dt:dt=""r8"">4273787204</Timestamp><Current dt:dt=""r8"">0</Current><DateUtc dt:dt=""string"">2021-05-07T10:57:23Z</DateUtc></FrequencyChange></FrequencyChanges></Clock>\n";EXP2.2_290421-1018-1;60.024;1.0.0.375;1;Chronos;-20701418;Full;3.0.3.80;3.0.3.80;05/07/2021;07/05/2021 10:57;12:57:23;3.0.3.82;2;Chronos;;2;1;2;TESTVV;Generalbloc;;;;pretest;Chronos;13;1;VV_290421/875.png;1;1;13;-25;blocVVstim;listVVTrial;;;;Chronos;0;;0;0;693877;200;;0;0;1;1;Chronos;0;0;694077;300;1;652;694729;1;1;Chronos;0;0;694377;0;1;352;694729;;;;;;;;;;;;;;;;;;;
EXP2.2_290421;1018;1;Chronos;<ChronosDeviceInfo><FriendlyName>MyChronos</FriendlyName><DeviceIndex>1</DeviceIndex><SerialNumber>CHR-04301-1186</SerialNumber><EBNVersion>3.0.3.80</EBNVersion><FirmwareVersion>1.33</FirmwareVersion><APIVersion>1.33</APIVersion><USBHostControllerVersion>2.0</USBHostControllerVersion><USBConnectionRoute>USB#ROOT_HUB20#4&9bd2e8a&0#{f18a0e88-c30c-11d0-8815-00a0c906bed8} + USB#VID_8087&PID_0024#5&3026c139&0&1#{f18a0e88-c30c-11d0-8815-00a0c906bed8}(1) + VID_2266&PID_0007(7)</USBConnectionRoute></ChronosDeviceInfo>;"<?xml version=""1.0""?>\n<Clock xmlns:dt=""urn:schemas-microsoft-com:datatypes""><Description dt:dt=""string"">E-Prime Primary Realtime Clock</Description><StartTime><Timestamp dt:dt=""int"">0</Timestamp><DateUtc dt:dt=""string"">2021-05-07T10:57:23Z</DateUtc></StartTime><FrequencyChanges><FrequencyChange><Frequency dt:dt=""r8"">2435576</Frequency><Timestamp dt:dt=""r8"">4273787204</Timestamp><Current dt:dt=""r8"">0</Current><DateUtc dt:dt=""string"">2021-05-07T10:57:23Z</DateUtc></FrequencyChange></FrequencyChanges></Clock>\n";EXP2.2_290421-1018-1;60.024;1.0.0.375;1;Chronos;-20701418;Full;3.0.3.80;3.0.3.80;05/07/2021;07/05/2021 10:57;12:57:23;3.0.3.82;2;Chronos;;2;1;2;TESTVV;Generalbloc;;;;pretest;Chronos;14;1;VV_290421/875.png;1;1;14;-25;blocVVstim;listVVTrial;;;;Chronos;0;;0;0;696243;200;;0;0;1;1;Chronos;0;0;696443;299;1;596;697039;1;1;Chronos;1;-1;696742;0;1;297;697039;;;;;;;;;;;;;;;;;;;
EXP2.2_290421;1018;1;Chronos;<ChronosDeviceInfo><FriendlyName>MyChronos</FriendlyName><DeviceIndex>1</DeviceIndex><SerialNumber>CHR-04301-1186</SerialNumber><EBNVersion>3.0.3.80</EBNVersion><FirmwareVersion>1.33</FirmwareVersion><APIVersion>1.33</APIVersion><USBHostControllerVersion>2.0</USBHostControllerVersion><USBConnectionRoute>USB#ROOT_HUB20#4&9bd2e8a&0#{f18a0e88-c30c-11d0-8815-00a0c906bed8} + USB#VID_8087&PID_0024#5&3026c139&0&1#{f18a0e88-c30c-11d0-8815-00a0c906bed8}(1) + VID_2266&PID_0007(7)</USBConnectionRoute></ChronosDeviceInfo>;"<?xml version=""1.0""?>\n<Clock xmlns:dt=""urn:schemas-microsoft-com:datatypes""><Description dt:dt=""string"">E-Prime Primary Realtime Clock</Description><StartTime><Timestamp dt:dt=""int"">0</Timestamp><DateUtc dt:dt=""string"">2021-05-07T10:57:23Z</DateUtc></StartTime><FrequencyChanges><FrequencyChange><Frequency dt:dt=""r8"">2435576</Frequency><Timestamp dt:dt=""r8"">4273787204</Timestamp><Current dt:dt=""r8"">0</Current><DateUtc dt:dt=""string"">2021-05-07T10:57:23Z</DateUtc></FrequencyChange></FrequencyChanges></Clock>\n";EXP2.2_290421-1018-1;60.024;1.0.0.375;1;Chronos;-20701418;Full;3.0.3.80;3.0.3.80;05/07/2021;07/05/2021 10:57;12:57:23;3.0.3.82;2;Chronos;;2;1;2;TESTVV;Generalbloc;;;;pretest;Chronos;15;5;VV_290421/925.png;11;1;15;25;blocVVstim;listVVTrial;;;;Chronos;0;;1;-1;698558;200;;0;0;1;5;Chronos;1;0;698758;300;5;599;699357;1;5;Chronos;0;0;699058;0;5;299;699357;;;;;;;;;;;;;;;;;;;
EXP2.2_290421;1018;1;Chronos;<ChronosDeviceInfo><FriendlyName>MyChronos</FriendlyName><DeviceIndex>1</DeviceIndex><SerialNumber>CHR-04301-1186</SerialNumber><EBNVersion>3.0.3.80</EBNVersion><FirmwareVersion>1.33</FirmwareVersion><APIVersion>1.33</APIVersion><USBHostControllerVersion>2.0</USBHostControllerVersion><USBConnectionRoute>USB#ROOT_HUB20#4&9bd2e8a&0#{f18a0e88-c30c-11d0-8815-00a0c906bed8} + USB#VID_8087&PID_0024#5&3026c139&0&1#{f18a0e88-c30c-11d0-8815-00a0c906bed8}(1) + VID_2266&PID_0007(7)</USBConnectionRoute></ChronosDeviceInfo>;"<?xml version=""1.0""?>\n<Clock xmlns:dt=""urn:schemas-microsoft-com:datatypes""><Description dt:dt=""string"">E-Prime Primary Realtime Clock</Description><StartTime><Timestamp dt:dt=""int"">0</Timestamp><DateUtc dt:dt=""string"">2021-05-07T10:57:23Z</DateUtc></StartTime><FrequencyChanges><FrequencyChange><Frequency dt:dt=""r8"">2435576</Frequency><Timestamp dt:dt=""r8"">4273787204</Timestamp><Current dt:dt=""r8"">0</Current><DateUtc dt:dt=""string"">2021-05-07T10:57:23Z</DateUtc></FrequencyChange></FrequencyChanges></Clock>\n";EXP2.2_290421-1018-1;60.024;1.0.0.375;1;Chronos;-20701418;Full;3.0.3.80;3.0.3.80;05/07/2021;07/05/2021 10:57;12:57:23;3.0.3.82;2;Chronos;;2;1;2;TESTVV;Generalbloc;;;;pretest;Chronos;16;1;VV_290421/895.png;5;1;16;-5;blocVVstim;listVVTrial;;;;Chronos;0;;0;-1;700874;200;;0;0;1;1;Chronos;0;0;701074;300;1;613;701687;1;1;Chronos;0;0;701374;0;1;313;701687;;;;;;;;;;;;;;;;;;;
EXP2.2_290421;1018;1;Chronos;<ChronosDeviceInfo><FriendlyName>MyChronos</FriendlyName><DeviceIndex>1</DeviceIndex><SerialNumber>CHR-04301-1186</SerialNumber><EBNVersion>3.0.3.80</EBNVersion><FirmwareVersion>1.33</FirmwareVersion><APIVersion>1.33</APIVersion><USBHostControllerVersion>2.0</USBHostControllerVersion><USBConnectionRoute>USB#ROOT_HUB20#4&9bd2e8a&0#{f18a0e88-c30c-11d0-8815-00a0c906bed8} + USB#VID_8087&PID_0024#5&3026c139&0&1#{f18a0e88-c30c-11d0-8815-00a0c906bed8}(1) + VID_2266&PID_0007(7)</USBConnectionRoute></ChronosDeviceInfo>;"<?xml version=""1.0""?>\n<Clock xmlns:dt=""urn:schemas-microsoft-com:datatypes""><Description dt:dt=""string"">E-Prime Primary Realtime Clock</Description><StartTime><Timestamp dt:dt=""int"">0</Timestamp><DateUtc dt:dt=""string"">2021-05-07T10:57:23Z</DateUtc></StartTime><FrequencyChanges><FrequencyChange><Frequency dt:dt=""r8"">2435576</Frequency><Timestamp dt:dt=""r8"">4273787204</Timestamp><Current dt:dt=""r8"">0</Current><DateUtc dt:dt=""string"">2021-05-07T10:57:23Z</DateUtc></FrequencyChange></FrequencyChanges></Clock>\n";EXP2.2_290421-1018-1;60.024;1.0.0.375;1;Chronos;-20701418;Full;3.0.3.80;3.0.3.80;05/07/2021;07/05/2021 10:57;12:57:23;3.0.3.82;2;Chronos;;2;1;2;TESTVV;Generalbloc;;;;pretest;Chronos;17;5;VV_290421/915.png;9;1;17;15;blocVVstim;listVVTrial;;;;Chronos;0;;0;0;703207;200;;0;0;1;5;Chronos;0;0;703407;300;5;701;704108;1;5;Chronos;0;0;703707;0;5;401;704108;;;;;;;;;;;;;;;;;;;
EXP2.2_290421;1018;1;Chronos;<ChronosDeviceInfo><FriendlyName>MyChronos</FriendlyName><DeviceIndex>1</DeviceIndex><SerialNumber>CHR-04301-1186</SerialNumber><EBNVersion>3.0.3.80</EBNVersion><FirmwareVersion>1.33</FirmwareVersion><APIVersion>1.33</APIVersion><USBHostControllerVersion>2.0</USBHostControllerVersion><USBConnectionRoute>USB#ROOT_HUB20#4&9bd2e8a&0#{f18a0e88-c30c-11d0-8815-00a0c906bed8} + USB#VID_8087&PID_0024#5&3026c139&0&1#{f18a0e88-c30c-11d0-8815-00a0c906bed8}(1) + VID_2266&PID_0007(7)</USBConnectionRoute></ChronosDeviceInfo>;"<?xml version=""1.0""?>\n<Clock xmlns:dt=""urn:schemas-microsoft-com:datatypes""><Description dt:dt=""string"">E-Prime Primary Realtime Clock</Description><StartTime><Timestamp dt:dt=""int"">0</Timestamp><DateUtc dt:dt=""string"">2021-05-07T10:57:23Z</DateUtc></StartTime><FrequencyChanges><FrequencyChange><Frequency dt:dt=""r8"">2435576</Frequency><Timestamp dt:dt=""r8"">4273787204</Timestamp><Current dt:dt=""r8"">0</Current><DateUtc dt:dt=""string"">2021-05-07T10:57:23Z</DateUtc></FrequencyChange></FrequencyChanges></Clock>\n";EXP2.2_290421-1018-1;60.024;1.0.0.375;1;Chronos;-20701418;Full;3.0.3.80;3.0.3.80;05/07/2021;07/05/2021 10:57;12:57:23;3.0.3.82;2;Chronos;;2;1;2;TESTVV;Generalbloc;;;;pretest;Chronos;18;5;VV_290421/925.png;11;1;18;25;blocVVstim;listVVTrial;;;;Chronos;0;;0;0;705623;199;;0;0;1;5;Chronos;1;-1;705822;300;5;603;706425;1;5;Chronos;0;0;706122;0;5;303;706425;;;;;;;;;;;;;;;;;;;
EXP2.2_290421;1018;1;Chronos;<ChronosDeviceInfo><FriendlyName>MyChronos</FriendlyName><DeviceIndex>1</DeviceIndex><SerialNumber>CHR-04301-1186</SerialNumber><EBNVersion>3.0.3.80</EBNVersion><FirmwareVersion>1.33</FirmwareVersion><APIVersion>1.33</APIVersion><USBHostControllerVersion>2.0</USBHostControllerVersion><USBConnectionRoute>USB#ROOT_HUB20#4&9bd2e8a&0#{f18a0e88-c30c-11d0-8815-00a0c906bed8} + USB#VID_8087&PID_0024#5&3026c139&0&1#{f18a0e88-c30c-11d0-8815-00a0c906bed8}(1) + VID_2266&PID_0007(7)</USBConnectionRoute></ChronosDeviceInfo>;"<?xml version=""1.0""?>\n<Clock xmlns:dt=""urn:schemas-microsoft-com:datatypes""><Description dt:dt=""string"">E-Prime Primary Realtime Clock</Description><StartTime><Timestamp dt:dt=""int"">0</Timestamp><DateUtc dt:dt=""string"">2021-05-07T10:57:23Z</DateUtc></StartTime><FrequencyChanges><FrequencyChange><Frequency dt:dt=""r8"">2435576</Frequency><Timestamp dt:dt=""r8"">4273787204</Timestamp><Current dt:dt=""r8"">0</Current><DateUtc dt:dt=""string"">2021-05-07T10:57:23Z</DateUtc></FrequencyChange></FrequencyChanges></Clock>\n";EXP2.2_290421-1018-1;60.024;1.0.0.375;1;Chronos;-20701418;Full;3.0.3.80;3.0.3.80;05/07/2021;07/05/2021 10:57;12:57:23;3.0.3.82;2;Chronos;;2;1;2;TESTVV;Generalbloc;;;;pretest;Chronos;19;5;VV_290421/915.png;9;1;19;15;blocVVstim;listVVTrial;;;;Chronos;0;;0;-1;707938;200;;0;0;1;5;Chronos;0;0;708138;300;5;651;708789;1;5;Chronos;0;0;708438;0;5;351;708789;;;;;;;;;;;;;;;;;;;
EXP2.2_290421;1018;1;Chronos;<ChronosDeviceInfo><FriendlyName>MyChronos</FriendlyName><DeviceIndex>1</DeviceIndex><SerialNumber>CHR-04301-1186</SerialNumber><EBNVersion>3.0.3.80</EBNVersion><FirmwareVersion>1.33</FirmwareVersion><APIVersion>1.33</APIVersion><USBHostControllerVersion>2.0</USBHostControllerVersion><USBConnectionRoute>USB#ROOT_HUB20#4&9bd2e8a&0#{f18a0e88-c30c-11d0-8815-00a0c906bed8} + USB#VID_8087&PID_0024#5&3026c139&0&1#{f18a0e88-c30c-11d0-8815-00a0c906bed8}(1) + VID_2266&PID_0007(7)</USBConnectionRoute></ChronosDeviceInfo>;"<?xml version=""1.0""?>\n<Clock xmlns:dt=""urn:schemas-microsoft-com:datatypes""><Description dt:dt=""string"">E-Prime Primary Realtime Clock</Description><StartTime><Timestamp dt:dt=""int"">0</Timestamp><DateUtc dt:dt=""string"">2021-05-07T10:57:23Z</DateUtc></StartTime><FrequencyChanges><FrequencyChange><Frequency dt:dt=""r8"">2435576</Frequency><Timestamp dt:dt=""r8"">4273787204</Timestamp><Current dt:dt=""r8"">0</Current><DateUtc dt:dt=""string"">2021-05-07T10:57:23Z</DateUtc></FrequencyChange></FrequencyChanges></Clock>\n";EXP2.2_290421-1018-1;60.024;1.0.0.375;1;Chronos;-20701418;Full;3.0.3.80;3.0.3.80;05/07/2021;07/05/2021 10:57;12:57:23;3.0.3.82;2;Chronos;;2;1;2;TESTVV;Generalbloc;;;;pretest;Chronos;20;1;VV_290421/885.png;3;1;20;-15;blocVVstim;listVVTrial;;;;Chronos;0;;0;-1;710304;200;;0;0;1;1;Chronos;0;0;710504;300;1;663;711167;1;1;Chronos;0;0;710804;0;1;363;711167;;;;;;;;;;;;;;;;;;;
EXP2.2_290421;1018;1;Chronos;<ChronosDeviceInfo><FriendlyName>MyChronos</FriendlyName><DeviceIndex>1</DeviceIndex><SerialNumber>CHR-04301-1186</SerialNumber><EBNVersion>3.0.3.80</EBNVersion><FirmwareVersion>1.33</FirmwareVersion><APIVersion>1.33</APIVersion><USBHostControllerVersion>2.0</USBHostControllerVersion><USBConnectionRoute>USB#ROOT_HUB20#4&9bd2e8a&0#{f18a0e88-c30c-11d0-8815-00a0c906bed8} + USB#VID_8087&PID_0024#5&3026c139&0&1#{f18a0e88-c30c-11d0-8815-00a0c906bed8}(1) + VID_2266&PID_0007(7)</USBConnectionRoute></ChronosDeviceInfo>;"<?xml version=""1.0""?>\n<Clock xmlns:dt=""urn:schemas-microsoft-com:datatypes""><Description dt:dt=""string"">E-Prime Primary Realtime Clock</Description><StartTime><Timestamp dt:dt=""int"">0</Timestamp><DateUtc dt:dt=""string"">2021-05-07T10:57:23Z</DateUtc></StartTime><FrequencyChanges><FrequencyChange><Frequency dt:dt=""r8"">2435576</Frequency><Timestamp dt:dt=""r8"">4273787204</Timestamp><Current dt:dt=""r8"">0</Current><DateUtc dt:dt=""string"">2021-05-07T10:57:23Z</DateUtc></FrequencyChange></FrequencyChanges></Clock>\n";EXP2.2_290421-1018-1;60.024;1.0.0.375;1;Chronos;-20701418;Full;3.0.3.80;3.0.3.80;05/07/2021;07/05/2021 10:57;12:57:23;3.0.3.82;2;Chronos;;2;1;2;TESTVV;Generalbloc;;;;pretest;Chronos;21;5;VV_290421/910.png;8;1;21;10;blocVVstim;listVVTrial;;;;Chronos;0;;0;0;712687;200;;0;0;1;5;Chronos;0;0;712887;299;5;585;713472;1;5;Chronos;1;-1;713186;0;5;286;713472;;;;;;;;;;;;;;;;;;;
EXP2.2_290421;1018;1;Chronos;<ChronosDeviceInfo><FriendlyName>MyChronos</FriendlyName><DeviceIndex>1</DeviceIndex><SerialNumber>CHR-04301-1186</SerialNumber><EBNVersion>3.0.3.80</EBNVersion><FirmwareVersion>1.33</FirmwareVersion><APIVersion>1.33</APIVersion><USBHostControllerVersion>2.0</USBHostControllerVersion><USBConnectionRoute>USB#ROOT_HUB20#4&9bd2e8a&0#{f18a0e88-c30c-11d0-8815-00a0c906bed8} + USB#VID_8087&PID_0024#5&3026c139&0&1#{f18a0e88-c30c-11d0-8815-00a0c906bed8}(1) + VID_2266&PID_0007(7)</USBConnectionRoute></ChronosDeviceInfo>;"<?xml version=""1.0""?>\n<Clock xmlns:dt=""urn:schemas-microsoft-com:datatypes""><Description dt:dt=""string"">E-Prime Primary Realtime Clock</Description><StartTime><Timestamp dt:dt=""int"">0</Timestamp><DateUtc dt:dt=""string"">2021-05-07T10:57:23Z</DateUtc></StartTime><FrequencyChanges><FrequencyChange><Frequency dt:dt=""r8"">2435576</Frequency><Timestamp dt:dt=""r8"">4273787204</Timestamp><Current dt:dt=""r8"">0</Current><DateUtc dt:dt=""string"">2021-05-07T10:57:23Z</DateUtc></FrequencyChange></FrequencyChanges></Clock>\n";EXP2.2_290421-1018-1;60.024;1.0.0.375;1;Chronos;-20701418;Full;3.0.3.80;3.0.3.80;05/07/2021;07/05/2021 10:57;12:57:23;3.0.3.82;2;Chronos;;2;1;2;TESTVV;Generalbloc;;;;pretest;Chronos;22;1;VV_290421/875.png;1;1;22;-25;blocVVstim;listVVTrial;;;;Chronos;0;;1;-1;715002;200;;0;0;1;1;Chronos;0;0;715202;300;1;672;715874;1;1;Chronos;0;0;715502;0;1;372;715874;;;;;;;;;;;;;;;;;;;
EXP2.2_290421;1018;1;Chronos;<ChronosDeviceInfo><FriendlyName>MyChronos</FriendlyName><DeviceIndex>1</DeviceIndex><SerialNumber>CHR-04301-1186</SerialNumber><EBNVersion>3.0.3.80</EBNVersion><FirmwareVersion>1.33</FirmwareVersion><APIVersion>1.33</APIVersion><USBHostControllerVersion>2.0</USBHostControllerVersion><USBConnectionRoute>USB#ROOT_HUB20#4&9bd2e8a&0#{f18a0e88-c30c-11d0-8815-00a0c906bed8} + USB#VID_8087&PID_0024#5&3026c139&0&1#{f18a0e88-c30c-11d0-8815-00a0c906bed8}(1) + VID_2266&PID_0007(7)</USBConnectionRoute></ChronosDeviceInfo>;"<?xml version=""1.0""?>\n<Clock xmlns:dt=""urn:schemas-microsoft-com:datatypes""><Description dt:dt=""string"">E-Prime Primary Realtime Clock</Description><StartTime><Timestamp dt:dt=""int"">0</Timestamp><DateUtc dt:dt=""string"">2021-05-07T10:57:23Z</DateUtc></StartTime><FrequencyChanges><FrequencyChange><Frequency dt:dt=""r8"">2435576</Frequency><Timestamp dt:dt=""r8"">4273787204</Timestamp><Current dt:dt=""r8"">0</Current><DateUtc dt:dt=""string"">2021-05-07T10:57:23Z</DateUtc></FrequencyChange></FrequencyChanges></Clock>\n";EXP2.2_290421-1018-1;60.024;1.0.0.375;1;Chronos;-20701418;Full;3.0.3.80;3.0.3.80;05/07/2021;07/05/2021 10:57;12:57:23;3.0.3.82;2;Chronos;;2;1;2;TESTVV;Generalbloc;;;;pretest;Chronos;23;1;VV_290421/880.png;2;1;23;-20;blocVVstim;listVVTrial;;;;Chronos;0;;0;0;717402;199;;0;0;1;1;Chronos;1;-1;717601;300;1;648;718249;1;1;Chronos;0;0;717901;0;1;348;718249;;;;;;;;;;;;;;;;;;;
EXP2.2_290421;1018;1;Chronos;<ChronosDeviceInfo><FriendlyName>MyChronos</FriendlyName><DeviceIndex>1</DeviceIndex><SerialNumber>CHR-04301-1186</SerialNumber><EBNVersion>3.0.3.80</EBNVersion><FirmwareVersion>1.33</FirmwareVersion><APIVersion>1.33</APIVersion><USBHostControllerVersion>2.0</USBHostControllerVersion><USBConnectionRoute>USB#ROOT_HUB20#4&9bd2e8a&0#{f18a0e88-c30c-11d0-8815-00a0c906bed8} + USB#VID_8087&PID_0024#5&3026c139&0&1#{f18a0e88-c30c-11d0-8815-00a0c906bed8}(1) + VID_2266&PID_0007(7)</USBConnectionRoute></ChronosDeviceInfo>;"<?xml version=""1.0""?>\n<Clock xmlns:dt=""urn:schemas-microsoft-com:datatypes""><Description dt:dt=""string"">E-Prime Primary Realtime Clock</Description><StartTime><Timestamp dt:dt=""int"">0</Timestamp><DateUtc dt:dt=""string"">2021-05-07T10:57:23Z</DateUtc></StartTime><FrequencyChanges><FrequencyChange><Frequency dt:dt=""r8"">2435576</Frequency><Timestamp dt:dt=""r8"">4273787204</Timestamp><Current dt:dt=""r8"">0</Current><DateUtc dt:dt=""string"">2021-05-07T10:57:23Z</DateUtc></FrequencyChange></FrequencyChanges></Clock>\n";EXP2.2_290421-1018-1;60.024;1.0.0.375;1;Chronos;-20701418;Full;3.0.3.80;3.0.3.80;05/07/2021;07/05/2021 10:57;12:57:23;3.0.3.82;2;Chronos;;2;1;2;TESTVV;Generalbloc;;;;pretest;Chronos;24;5;VV_290421/920.png;10;1;24;20;blocVVstim;listVVTrial;;;;Chronos;0;;0;-1;719767;200;;0;0;1;5;Chronos;0;0;719967;300;5;437;720404;1;5;Chronos;0;0;720267;0;5;137;720404;;;;;;;;;;;;;;;;;;;
EXP2.2_290421;1018;1;Chronos;<ChronosDeviceInfo><FriendlyName>MyChronos</FriendlyName><DeviceIndex>1</DeviceIndex><SerialNumber>CHR-04301-1186</SerialNumber><EBNVersion>3.0.3.80</EBNVersion><FirmwareVersion>1.33</FirmwareVersion><APIVersion>1.33</APIVersion><USBHostControllerVersion>2.0</USBHostControllerVersion><USBConnectionRoute>USB#ROOT_HUB20#4&9bd2e8a&0#{f18a0e88-c30c-11d0-8815-00a0c906bed8} + USB#VID_8087&PID_0024#5&3026c139&0&1#{f18a0e88-c30c-11d0-8815-00a0c906bed8}(1) + VID_2266&PID_0007(7)</USBConnectionRoute></ChronosDeviceInfo>;"<?xml version=""1.0""?>\n<Clock xmlns:dt=""urn:schemas-microsoft-com:datatypes""><Description dt:dt=""string"">E-Prime Primary Realtime Clock</Description><StartTime><Timestamp dt:dt=""int"">0</Timestamp><DateUtc dt:dt=""string"">2021-05-07T10:57:23Z</DateUtc></StartTime><FrequencyChanges><FrequencyChange><Frequency dt:dt=""r8"">2435576</Frequency><Timestamp dt:dt=""r8"">4273787204</Timestamp><Current dt:dt=""r8"">0</Current><DateUtc dt:dt=""string"">2021-05-07T10:57:23Z</DateUtc></FrequencyChange></FrequencyChanges></Clock>\n";EXP2.2_290421-1018-1;60.024;1.0.0.375;1;Chronos;-20701418;Full;3.0.3.80;3.0.3.80;05/07/2021;07/05/2021 10:57;12:57:23;3.0.3.82;2;Chronos;;2;1;2;TESTVV;Generalbloc;;;;pretest;Chronos;25;1;VV_290421/890.png;4;1;25;-10;blocVVstim;listVVTrial;;;;Chronos;0;;0;0;721917;199;;0;0;1;1;Chronos;1;-1;722116;301;1;470;722586;1;1;Chronos;0;1;722417;0;1;169;722586;;;;;;;;;;;;;;;;;;;
EXP2.2_290421;1018;1;Chronos;<ChronosDeviceInfo><FriendlyName>MyChronos</FriendlyName><DeviceIndex>1</DeviceIndex><SerialNumber>CHR-04301-1186</SerialNumber><EBNVersion>3.0.3.80</EBNVersion><FirmwareVersion>1.33</FirmwareVersion><APIVersion>1.33</APIVersion><USBHostControllerVersion>2.0</USBHostControllerVersion><USBConnectionRoute>USB#ROOT_HUB20#4&9bd2e8a&0#{f18a0e88-c30c-11d0-8815-00a0c906bed8} + USB#VID_8087&PID_0024#5&3026c139&0&1#{f18a0e88-c30c-11d0-8815-00a0c906bed8}(1) + VID_2266&PID_0007(7)</USBConnectionRoute></ChronosDeviceInfo>;"<?xml version=""1.0""?>\n<Clock xmlns:dt=""urn:schemas-microsoft-com:datatypes""><Description dt:dt=""string"">E-Prime Primary Realtime Clock</Description><StartTime><Timestamp dt:dt=""int"">0</Timestamp><DateUtc dt:dt=""string"">2021-05-07T10:57:23Z</DateUtc></StartTime><FrequencyChanges><FrequencyChange><Frequency dt:dt=""r8"">2435576</Frequency><Timestamp dt:dt=""r8"">4273787204</Timestamp><Current dt:dt=""r8"">0</Current><DateUtc dt:dt=""string"">2021-05-07T10:57:23Z</DateUtc></FrequencyChange></FrequencyChanges></Clock>\n";EXP2.2_290421-1018-1;60.024;1.0.0.375;1;Chronos;-20701418;Full;3.0.3.80;3.0.3.80;05/07/2021;07/05/2021 10:57;12:57:23;3.0.3.82;2;Chronos;;2;1;2;TESTVV;Generalbloc;;;;pretest;Chronos;26;5;VV_290421/910.png;8;1;26;10;blocVVstim;listVVTrial;;;;Chronos;0;;0;-1;724099;200;;0;0;1;5;Chronos;0;0;724299;300;5;598;724897;1;5;Chronos;0;0;724599;0;5;298;724897;;;;;;;;;;;;;;;;;;;
EXP2.2_290421;1018;1;Chronos;<ChronosDeviceInfo><FriendlyName>MyChronos</FriendlyName><DeviceIndex>1</DeviceIndex><SerialNumber>CHR-04301-1186</SerialNumber><EBNVersion>3.0.3.80</EBNVersion><FirmwareVersion>1.33</FirmwareVersion><APIVersion>1.33</APIVersion><USBHostControllerVersion>2.0</USBHostControllerVersion><USBConnectionRoute>USB#ROOT_HUB20#4&9bd2e8a&0#{f18a0e88-c30c-11d0-8815-00a0c906bed8} + USB#VID_8087&PID_0024#5&3026c139&0&1#{f18a0e88-c30c-11d0-8815-00a0c906bed8}(1) + VID_2266&PID_0007(7)</USBConnectionRoute></ChronosDeviceInfo>;"<?xml version=""1.0""?>\n<Clock xmlns:dt=""urn:schemas-microsoft-com:datatypes""><Description dt:dt=""string"">E-Prime Primary Realtime Clock</Description><StartTime><Timestamp dt:dt=""int"">0</Timestamp><DateUtc dt:dt=""string"">2021-05-07T10:57:23Z</DateUtc></StartTime><FrequencyChanges><FrequencyChange><Frequency dt:dt=""r8"">2435576</Frequency><Timestamp dt:dt=""r8"">4273787204</Timestamp><Current dt:dt=""r8"">0</Current><DateUtc dt:dt=""string"">2021-05-07T10:57:23Z</DateUtc></FrequencyChange></FrequencyChanges></Clock>\n";EXP2.2_290421-1018-1;60.024;1.0.0.375;1;Chronos;-20701418;Full;3.0.3.80;3.0.3.80;05/07/2021;07/05/2021 10:57;12:57:23;3.0.3.82;2;Chronos;;2;1;2;TESTVV;Generalbloc;;;;pretest;Chronos;27;1;VV_290421/885.png;3;1;27;-15;blocVVstim;listVVTrial;;;;Chronos;0;;0;0;726415;200;;0;0;1;1;Chronos;0;0;726615;300;1;586;727201;1;1;Chronos;0;0;726915;0;1;286;727201;;;;;;;;;;;;;;;;;;;
EXP2.2_290421;1018;1;Chronos;<ChronosDeviceInfo><FriendlyName>MyChronos</FriendlyName><DeviceIndex>1</DeviceIndex><SerialNumber>CHR-04301-1186</SerialNumber><EBNVersion>3.0.3.80</EBNVersion><FirmwareVersion>1.33</FirmwareVersion><APIVersion>1.33</APIVersion><USBHostControllerVersion>2.0</USBHostControllerVersion><USBConnectionRoute>USB#ROOT_HUB20#4&9bd2e8a&0#{f18a0e88-c30c-11d0-8815-00a0c906bed8} + USB#VID_8087&PID_0024#5&3026c139&0&1#{f18a0e88-c30c-11d0-8815-00a0c906bed8}(1) + VID_2266&PID_0007(7)</USBConnectionRoute></ChronosDeviceInfo>;"<?xml version=""1.0""?>\n<Clock xmlns:dt=""urn:schemas-microsoft-com:datatypes""><Description dt:dt=""string"">E-Prime Primary Realtime Clock</Description><StartTime><Timestamp dt:dt=""int"">0</Timestamp><DateUtc dt:dt=""string"">2021-05-07T10:57:23Z</DateUtc></StartTime><FrequencyChanges><FrequencyChange><Frequency dt:dt=""r8"">2435576</Frequency><Timestamp dt:dt=""r8"">4273787204</Timestamp><Current dt:dt=""r8"">0</Current><DateUtc dt:dt=""string"">2021-05-07T10:57:23Z</DateUtc></FrequencyChange></FrequencyChanges></Clock>\n";EXP2.2_290421-1018-1;60.024;1.0.0.375;1;Chronos;-20701418;Full;3.0.3.80;3.0.3.80;05/07/2021;07/05/2021 10:57;12:57:23;3.0.3.82;2;Chronos;;2;1;2;TESTVV;Generalbloc;;;;pretest;Chronos;28;5;VV_290421/905.png;7;1;28;5;blocVVstim;listVVTrial;;;;Chronos;0;;0;-1;728714;200;;0;0;0;5;Chronos;0;0;728914;300;1;484;729398;0;5;Chronos;0;0;729214;0;1;184;729398;;;;;;;;;;;;;;;;;;;
EXP2.2_290421;1018;1;Chronos;<ChronosDeviceInfo><FriendlyName>MyChronos</FriendlyName><DeviceIndex>1</DeviceIndex><SerialNumber>CHR-04301-1186</SerialNumber><EBNVersion>3.0.3.80</EBNVersion><FirmwareVersion>1.33</FirmwareVersion><APIVersion>1.33</APIVersion><USBHostControllerVersion>2.0</USBHostControllerVersion><USBConnectionRoute>USB#ROOT_HUB20#4&9bd2e8a&0#{f18a0e88-c30c-11d0-8815-00a0c906bed8} + USB#VID_8087&PID_0024#5&3026c139&0&1#{f18a0e88-c30c-11d0-8815-00a0c906bed8}(1) + VID_2266&PID_0007(7)</USBConnectionRoute></ChronosDeviceInfo>;"<?xml version=""1.0""?>\n<Clock xmlns:dt=""urn:schemas-microsoft-com:datatypes""><Description dt:dt=""string"">E-Prime Primary Realtime Clock</Description><StartTime><Timestamp dt:dt=""int"">0</Timestamp><DateUtc dt:dt=""string"">2021-05-07T10:57:23Z</DateUtc></StartTime><FrequencyChanges><FrequencyChange><Frequency dt:dt=""r8"">2435576</Frequency><Timestamp dt:dt=""r8"">4273787204</Timestamp><Current dt:dt=""r8"">0</Current><DateUtc dt:dt=""string"">2021-05-07T10:57:23Z</DateUtc></FrequencyChange></FrequencyChanges></Clock>\n";EXP2.2_290421-1018-1;60.024;1.0.0.375;1;Chronos;-20701418;Full;3.0.3.80;3.0.3.80;05/07/2021;07/05/2021 10:57;12:57:23;3.0.3.82;2;Chronos;;2;1;2;TESTVV;Generalbloc;;;;pretest;Chronos;29;1;VV_290421/880.png;2;1;29;-20;blocVVstim;listVVTrial;;;;Chronos;0;;0;-1;730913;200;;0;0;1;1;Chronos;0;0;731113;300;1;588;731701;1;1;Chronos;0;0;731413;0;1;288;731701;;;;;;;;;;;;;;;;;;;
EXP2.2_290421;1018;1;Chronos;<ChronosDeviceInfo><FriendlyName>MyChronos</FriendlyName><DeviceIndex>1</DeviceIndex><SerialNumber>CHR-04301-1186</SerialNumber><EBNVersion>3.0.3.80</EBNVersion><FirmwareVersion>1.33</FirmwareVersion><APIVersion>1.33</APIVersion><USBHostControllerVersion>2.0</USBHostControllerVersion><USBConnectionRoute>USB#ROOT_HUB20#4&9bd2e8a&0#{f18a0e88-c30c-11d0-8815-00a0c906bed8} + USB#VID_8087&PID_0024#5&3026c139&0&1#{f18a0e88-c30c-11d0-8815-00a0c906bed8}(1) + VID_2266&PID_0007(7)</USBConnectionRoute></ChronosDeviceInfo>;"<?xml version=""1.0""?>\n<Clock xmlns:dt=""urn:schemas-microsoft-com:datatypes""><Description dt:dt=""string"">E-Prime Primary Realtime Clock</Description><StartTime><Timestamp dt:dt=""int"">0</Timestamp><DateUtc dt:dt=""string"">2021-05-07T10:57:23Z</DateUtc></StartTime><FrequencyChanges><FrequencyChange><Frequency dt:dt=""r8"">2435576</Frequency><Timestamp dt:dt=""r8"">4273787204</Timestamp><Current dt:dt=""r8"">0</Current><DateUtc dt:dt=""string"">2021-05-07T10:57:23Z</DateUtc></FrequencyChange></FrequencyChanges></Clock>\n";EXP2.2_290421-1018-1;60.024;1.0.0.375;1;Chronos;-20701418;Full;3.0.3.80;3.0.3.80;05/07/2021;07/05/2021 10:57;12:57:23;3.0.3.82;2;Chronos;;2;1;2;TESTVV;Generalbloc;;;;pretest;Chronos;30;5;VV_290421/920.png;10;1;30;20;blocVVstim;listVVTrial;;;;Chronos;0;;0;-1;733229;200;;0;0;1;5;Chronos;0;0;733429;300;5;378;733807;1;5;Chronos;0;0;733729;0;5;78;733807;;;;;;;;;;;;;;;;;;;
EXP2.2_290421;1018;1;Chronos;<ChronosDeviceInfo><FriendlyName>MyChronos</FriendlyName><DeviceIndex>1</DeviceIndex><SerialNumber>CHR-04301-1186</SerialNumber><EBNVersion>3.0.3.80</EBNVersion><FirmwareVersion>1.33</FirmwareVersion><APIVersion>1.33</APIVersion><USBHostControllerVersion>2.0</USBHostControllerVersion><USBConnectionRoute>USB#ROOT_HUB20#4&9bd2e8a&0#{f18a0e88-c30c-11d0-8815-00a0c906bed8} + USB#VID_8087&PID_0024#5&3026c139&0&1#{f18a0e88-c30c-11d0-8815-00a0c906bed8}(1) + VID_2266&PID_0007(7)</USBConnectionRoute></ChronosDeviceInfo>;"<?xml version=""1.0""?>\n<Clock xmlns:dt=""urn:schemas-microsoft-com:datatypes""><Description dt:dt=""string"">E-Prime Primary Realtime Clock</Description><StartTime><Timestamp dt:dt=""int"">0</Timestamp><DateUtc dt:dt=""string"">2021-05-07T10:57:23Z</DateUtc></StartTime><FrequencyChanges><FrequencyChange><Frequency dt:dt=""r8"">2435576</Frequency><Timestamp dt:dt=""r8"">4273787204</Timestamp><Current dt:dt=""r8"">0</Current><DateUtc dt:dt=""string"">2021-05-07T10:57:23Z</DateUtc></FrequencyChange></FrequencyChanges></Clock>\n";EXP2.2_290421-1018-1;60.024;1.0.0.375;1;Chronos;-20701418;Full;3.0.3.80;3.0.3.80;05/07/2021;07/05/2021 10:57;12:57:23;3.0.3.82;2;Chronos;;2;1;2;TESTVV;Generalbloc;;;;pretest;Chronos;31;1;VV_290421/890.png;4;1;31;-10;blocVVstim;listVVTrial;;;;Chronos;0;;0;-1;735328;200;;0;0;1;1;Chronos;0;0;735528;300;1;580;736108;1;1;Chronos;0;0;735828;0;1;280;736108;;;;;;;;;;;;;;;;;;;
EXP2.2_290421;1018;1;Chronos;<ChronosDeviceInfo><FriendlyName>MyChronos</FriendlyName><DeviceIndex>1</DeviceIndex><SerialNumber>CHR-04301-1186</SerialNumber><EBNVersion>3.0.3.80</EBNVersion><FirmwareVersion>1.33</FirmwareVersion><APIVersion>1.33</APIVersion><USBHostControllerVersion>2.0</USBHostControllerVersion><USBConnectionRoute>USB#ROOT_HUB20#4&9bd2e8a&0#{f18a0e88-c30c-11d0-8815-00a0c906bed8} + USB#VID_8087&PID_0024#5&3026c139&0&1#{f18a0e88-c30c-11d0-8815-00a0c906bed8}(1) + VID_2266&PID_0007(7)</USBConnectionRoute></ChronosDeviceInfo>;"<?xml version=""1.0""?>\n<Clock xmlns:dt=""urn:schemas-microsoft-com:datatypes""><Description dt:dt=""string"">E-Prime Primary Realtime Clock</Description><StartTime><Timestamp dt:dt=""int"">0</Timestamp><DateUtc dt:dt=""string"">2021-05-07T10:57:23Z</DateUtc></StartTime><FrequencyChanges><FrequencyChange><Frequency dt:dt=""r8"">2435576</Frequency><Timestamp dt:dt=""r8"">4273787204</Timestamp><Current dt:dt=""r8"">0</Current><DateUtc dt:dt=""string"">2021-05-07T10:57:23Z</DateUtc></FrequencyChange></FrequencyChanges></Clock>\n";EXP2.2_290421-1018-1;60.024;1.0.0.375;1;Chronos;-20701418;Full;3.0.3.80;3.0.3.80;05/07/2021;07/05/2021 10:57;12:57:23;3.0.3.82;2;Chronos;;2;1;2;TESTVV;Generalbloc;;;;pretest;Chronos;32;5;VV_290421/920.png;10;1;32;20;blocVVstim;listVVTrial;;;;Chronos;0;;1;-1;737627;200;;0;0;1;5;Chronos;0;0;737827;300;5;576;738403;1;5;Chronos;0;0;738127;0;5;276;738403;;;;;;;;;;;;;;;;;;;
EXP2.2_290421;1018;1;Chronos;<ChronosDeviceInfo><FriendlyName>MyChronos</FriendlyName><DeviceIndex>1</DeviceIndex><SerialNumber>CHR-04301-1186</SerialNumber><EBNVersion>3.0.3.80</EBNVersion><FirmwareVersion>1.33</FirmwareVersion><APIVersion>1.33</APIVersion><USBHostControllerVersion>2.0</USBHostControllerVersion><USBConnectionRoute>USB#ROOT_HUB20#4&9bd2e8a&0#{f18a0e88-c30c-11d0-8815-00a0c906bed8} + USB#VID_8087&PID_0024#5&3026c139&0&1#{f18a0e88-c30c-11d0-8815-00a0c906bed8}(1) + VID_2266&PID_0007(7)</USBConnectionRoute></ChronosDeviceInfo>;"<?xml version=""1.0""?>\n<Clock xmlns:dt=""urn:schemas-microsoft-com:datatypes""><Description dt:dt=""string"">E-Prime Primary Realtime Clock</Description><StartTime><Timestamp dt:dt=""int"">0</Timestamp><DateUtc dt:dt=""string"">2021-05-07T10:57:23Z</DateUtc></StartTime><FrequencyChanges><FrequencyChange><Frequency dt:dt=""r8"">2435576</Frequency><Timestamp dt:dt=""r8"">4273787204</Timestamp><Current dt:dt=""r8"">0</Current><DateUtc dt:dt=""string"">2021-05-07T10:57:23Z</DateUtc></FrequencyChange></FrequencyChanges></Clock>\n";EXP2.2_290421-1018-1;60.024;1.0.0.375;1;Chronos;-20701418;Full;3.0.3.80;3.0.3.80;05/07/2021;07/05/2021 10:57;12:57:23;3.0.3.82;2;Chronos;;2;1;2;TESTVV;Generalbloc;;;;pretest;Chronos;33;1;VV_290421/890.png;4;1;33;-10;blocVVstim;listVVTrial;;;;Chronos;0;;0;0;739927;199;;0;0;1;1;Chronos;1;-1;740126;300;1;680;740806;1;1;Chronos;1;0;740426;0;1;380;740806;;;;;;;;;;;;;;;;;;;
EXP2.2_290421;1018;1;Chronos;<ChronosDeviceInfo><FriendlyName>MyChronos</FriendlyName><DeviceIndex>1</DeviceIndex><SerialNumber>CHR-04301-1186</SerialNumber><EBNVersion>3.0.3.80</EBNVersion><FirmwareVersion>1.33</FirmwareVersion><APIVersion>1.33</APIVersion><USBHostControllerVersion>2.0</USBHostControllerVersion><USBConnectionRoute>USB#ROOT_HUB20#4&9bd2e8a&0#{f18a0e88-c30c-11d0-8815-00a0c906bed8} + USB#VID_8087&PID_0024#5&3026c139&0&1#{f18a0e88-c30c-11d0-8815-00a0c906bed8}(1) + VID_2266&PID_0007(7)</USBConnectionRoute></ChronosDeviceInfo>;"<?xml version=""1.0""?>\n<Clock xmlns:dt=""urn:schemas-microsoft-com:datatypes""><Description dt:dt=""string"">E-Prime Primary Realtime Clock</Description><StartTime><Timestamp dt:dt=""int"">0</Timestamp><DateUtc dt:dt=""string"">2021-05-07T10:57:23Z</DateUtc></StartTime><FrequencyChanges><FrequencyChange><Frequency dt:dt=""r8"">2435576</Frequency><Timestamp dt:dt=""r8"">4273787204</Timestamp><Current dt:dt=""r8"">0</Current><DateUtc dt:dt=""string"">2021-05-07T10:57:23Z</DateUtc></FrequencyChange></FrequencyChanges></Clock>\n";EXP2.2_290421-1018-1;60.024;1.0.0.375;1;Chronos;-20701418;Full;3.0.3.80;3.0.3.80;05/07/2021;07/05/2021 10:57;12:57:23;3.0.3.82;2;Chronos;;2;1;2;TESTVV;Generalbloc;;;;pretest;Chronos;34;5;VV_290421/925.png;11;1;34;25;blocVVstim;listVVTrial;;;;Chronos;0;;0;0;742326;200;;0;0;1;5;Chronos;0;0;742526;299;5;593;743119;1;5;Chronos;1;-1;742825;0;5;294;743119;;;;;;;;;;;;;;;;;;;
EXP2.2_290421;1018;1;Chronos;<ChronosDeviceInfo><FriendlyName>MyChronos</FriendlyName><DeviceIndex>1</DeviceIndex><SerialNumber>CHR-04301-1186</SerialNumber><EBNVersion>3.0.3.80</EBNVersion><FirmwareVersion>1.33</FirmwareVersion><APIVersion>1.33</APIVersion><USBHostControllerVersion>2.0</USBHostControllerVersion><USBConnectionRoute>USB#ROOT_HUB20#4&9bd2e8a&0#{f18a0e88-c30c-11d0-8815-00a0c906bed8} + USB#VID_8087&PID_0024#5&3026c139&0&1#{f18a0e88-c30c-11d0-8815-00a0c906bed8}(1) + VID_2266&PID_0007(7)</USBConnectionRoute></ChronosDeviceInfo>;"<?xml version=""1.0""?>\n<Clock xmlns:dt=""urn:schemas-microsoft-com:datatypes""><Description dt:dt=""string"">E-Prime Primary Realtime Clock</Description><StartTime><Timestamp dt:dt=""int"">0</Timestamp><DateUtc dt:dt=""string"">2021-05-07T10:57:23Z</DateUtc></StartTime><FrequencyChanges><FrequencyChange><Frequency dt:dt=""r8"">2435576</Frequency><Timestamp dt:dt=""r8"">4273787204</Timestamp><Current dt:dt=""r8"">0</Current><DateUtc dt:dt=""string"">2021-05-07T10:57:23Z</DateUtc></FrequencyChange></FrequencyChanges></Clock>\n";EXP2.2_290421-1018-1;60.024;1.0.0.375;1;Chronos;-20701418;Full;3.0.3.80;3.0.3.80;05/07/2021;07/05/2021 10:57;12:57:23;3.0.3.82;2;Chronos;;2;1;2;TESTVV;Generalbloc;;;;pretest;Chronos;35;5;VV_290421/910.png;8;1;35;10;blocVVstim;listVVTrial;;;;Chronos;0;;1;-1;744641;200;;0;0;1;5;Chronos;1;0;744841;300;5;538;745379;1;5;Chronos;0;0;745141;0;5;238;745379;;;;;;;;;;;;;;;;;;;
EXP2.2_290421;1018;1;Chronos;<ChronosDeviceInfo><FriendlyName>MyChronos</FriendlyName><DeviceIndex>1</DeviceIndex><SerialNumber>CHR-04301-1186</SerialNumber><EBNVersion>3.0.3.80</EBNVersion><FirmwareVersion>1.33</FirmwareVersion><APIVersion>1.33</APIVersion><USBHostControllerVersion>2.0</USBHostControllerVersion><USBConnectionRoute>USB#ROOT_HUB20#4&9bd2e8a&0#{f18a0e88-c30c-11d0-8815-00a0c906bed8} + USB#VID_8087&PID_0024#5&3026c139&0&1#{f18a0e88-c30c-11d0-8815-00a0c906bed8}(1) + VID_2266&PID_0007(7)</USBConnectionRoute></ChronosDeviceInfo>;"<?xml version=""1.0""?>\n<Clock xmlns:dt=""urn:schemas-microsoft-com:datatypes""><Description dt:dt=""string"">E-Prime Primary Realtime Clock</Description><StartTime><Timestamp dt:dt=""int"">0</Timestamp><DateUtc dt:dt=""string"">2021-05-07T10:57:23Z</DateUtc></StartTime><FrequencyChanges><FrequencyChange><Frequency dt:dt=""r8"">2435576</Frequency><Timestamp dt:dt=""r8"">4273787204</Timestamp><Current dt:dt=""r8"">0</Current><DateUtc dt:dt=""string"">2021-05-07T10:57:23Z</DateUtc></FrequencyChange></FrequencyChanges></Clock>\n";EXP2.2_290421-1018-1;60.024;1.0.0.375;1;Chronos;-20701418;Full;3.0.3.80;3.0.3.80;05/07/2021;07/05/2021 10:57;12:57:23;3.0.3.82;2;Chronos;;2;1;2;TESTVV;Generalbloc;;;;pretest;Chronos;36;5;VV_290421/920.png;10;1;36;20;blocVVstim;listVVTrial;;;;Chronos;0;;0;0;746891;200;;0;0;1;5;Chronos;0;0;747091;299;5;626;747717;1;5;Chronos;1;-1;747390;0;5;327;747717;;;;;;;;;;;;;;;;;;;
EXP2.2_290421;1018;1;Chronos;<ChronosDeviceInfo><FriendlyName>MyChronos</FriendlyName><DeviceIndex>1</DeviceIndex><SerialNumber>CHR-04301-1186</SerialNumber><EBNVersion>3.0.3.80</EBNVersion><FirmwareVersion>1.33</FirmwareVersion><APIVersion>1.33</APIVersion><USBHostControllerVersion>2.0</USBHostControllerVersion><USBConnectionRoute>USB#ROOT_HUB20#4&9bd2e8a&0#{f18a0e88-c30c-11d0-8815-00a0c906bed8} + USB#VID_8087&PID_0024#5&3026c139&0&1#{f18a0e88-c30c-11d0-8815-00a0c906bed8}(1) + VID_2266&PID_0007(7)</USBConnectionRoute></ChronosDeviceInfo>;"<?xml version=""1.0""?>\n<Clock xmlns:dt=""urn:schemas-microsoft-com:datatypes""><Description dt:dt=""string"">E-Prime Primary Realtime Clock</Description><StartTime><Timestamp dt:dt=""int"">0</Timestamp><DateUtc dt:dt=""string"">2021-05-07T10:57:23Z</DateUtc></StartTime><FrequencyChanges><FrequencyChange><Frequency dt:dt=""r8"">2435576</Frequency><Timestamp dt:dt=""r8"">4273787204</Timestamp><Current dt:dt=""r8"">0</Current><DateUtc dt:dt=""string"">2021-05-07T10:57:23Z</DateUtc></FrequencyChange></FrequencyChanges></Clock>\n";EXP2.2_290421-1018-1;60.024;1.0.0.375;1;Chronos;-20701418;Full;3.0.3.80;3.0.3.80;05/07/2021;07/05/2021 10:57;12:57:23;3.0.3.82;2;Chronos;;2;1;2;TESTVV;Generalbloc;;;;pretest;Chronos;37;1;VV_290421/890.png;4;1;37;-10;blocVVstim;listVVTrial;;;;Chronos;0;;0;0;749240;200;;0;0;1;1;Chronos;0;0;749440;300;1;760;750200;1;1;Chronos;0;0;749740;0;1;460;750200;;;;;;;;;;;;;;;;;;;
EXP2.2_290421;1018;1;Chronos;<ChronosDeviceInfo><FriendlyName>MyChronos</FriendlyName><DeviceIndex>1</DeviceIndex><SerialNumber>CHR-04301-1186</SerialNumber><EBNVersion>3.0.3.80</EBNVersion><FirmwareVersion>1.33</FirmwareVersion><APIVersion>1.33</APIVersion><USBHostControllerVersion>2.0</USBHostControllerVersion><USBConnectionRoute>USB#ROOT_HUB20#4&9bd2e8a&0#{f18a0e88-c30c-11d0-8815-00a0c906bed8} + USB#VID_8087&PID_0024#5&3026c139&0&1#{f18a0e88-c30c-11d0-8815-00a0c906bed8}(1) + VID_2266&PID_0007(7)</USBConnectionRoute></ChronosDeviceInfo>;"<?xml version=""1.0""?>\n<Clock xmlns:dt=""urn:schemas-microsoft-com:datatypes""><Description dt:dt=""string"">E-Prime Primary Realtime Clock</Description><StartTime><Timestamp dt:dt=""int"">0</Timestamp><DateUtc dt:dt=""string"">2021-05-07T10:57:23Z</DateUtc></StartTime><FrequencyChanges><FrequencyChange><Frequency dt:dt=""r8"">2435576</Frequency><Timestamp dt:dt=""r8"">4273787204</Timestamp><Current dt:dt=""r8"">0</Current><DateUtc dt:dt=""string"">2021-05-07T10:57:23Z</DateUtc></FrequencyChange></FrequencyChanges></Clock>\n";EXP2.2_290421-1018-1;60.024;1.0.0.375;1;Chronos;-20701418;Full;3.0.3.80;3.0.3.80;05/07/2021;07/05/2021 10:57;12:57:23;3.0.3.82;2;Chronos;;2;1;2;TESTVV;Generalbloc;;;;pretest;Chronos;38;1;VV_290421/890.png;4;1;38;-10;blocVVstim;listVVTrial;;;;Chronos;0;;0;-1;751722;200;;0;0;1;1;Chronos;0;0;751922;300;1;619;752541;1;1;Chronos;0;0;752222;0;1;319;752541;;;;;;;;;;;;;;;;;;;
EXP2.2_290421;1018;1;Chronos;<ChronosDeviceInfo><FriendlyName>MyChronos</FriendlyName><DeviceIndex>1</DeviceIndex><SerialNumber>CHR-04301-1186</SerialNumber><EBNVersion>3.0.3.80</EBNVersion><FirmwareVersion>1.33</FirmwareVersion><APIVersion>1.33</APIVersion><USBHostControllerVersion>2.0</USBHostControllerVersion><USBConnectionRoute>USB#ROOT_HUB20#4&9bd2e8a&0#{f18a0e88-c30c-11d0-8815-00a0c906bed8} + USB#VID_8087&PID_0024#5&3026c139&0&1#{f18a0e88-c30c-11d0-8815-00a0c906bed8}(1) + VID_2266&PID_0007(7)</USBConnectionRoute></ChronosDeviceInfo>;"<?xml version=""1.0""?>\n<Clock xmlns:dt=""urn:schemas-microsoft-com:datatypes""><Description dt:dt=""string"">E-Prime Primary Realtime Clock</Description><StartTime><Timestamp dt:dt=""int"">0</Timestamp><DateUtc dt:dt=""string"">2021-05-07T10:57:23Z</DateUtc></StartTime><FrequencyChanges><FrequencyChange><Frequency dt:dt=""r8"">2435576</Frequency><Timestamp dt:dt=""r8"">4273787204</Timestamp><Current dt:dt=""r8"">0</Current><DateUtc dt:dt=""string"">2021-05-07T10:57:23Z</DateUtc></FrequencyChange></FrequencyChanges></Clock>\n";EXP2.2_290421-1018-1;60.024;1.0.0.375;1;Chronos;-20701418;Full;3.0.3.80;3.0.3.80;05/07/2021;07/05/2021 10:57;12:57:23;3.0.3.82;2;Chronos;;2;1;2;TESTVV;Generalbloc;;;;pretest;Chronos;39;5;VV_290421/915.png;9;1;39;15;blocVVstim;listVVTrial;;;;Chronos;0;;0;0;754055;200;;0;0;1;5;Chronos;0;0;754255;299;5;607;754862;1;5;Chronos;1;-1;754554;0;5;308;754862;;;;;;;;;;;;;;;;;;;
EXP2.2_290421;1018;1;Chronos;<ChronosDeviceInfo><FriendlyName>MyChronos</FriendlyName><DeviceIndex>1</DeviceIndex><SerialNumber>CHR-04301-1186</SerialNumber><EBNVersion>3.0.3.80</EBNVersion><FirmwareVersion>1.33</FirmwareVersion><APIVersion>1.33</APIVersion><USBHostControllerVersion>2.0</USBHostControllerVersion><USBConnectionRoute>USB#ROOT_HUB20#4&9bd2e8a&0#{f18a0e88-c30c-11d0-8815-00a0c906bed8} + USB#VID_8087&PID_0024#5&3026c139&0&1#{f18a0e88-c30c-11d0-8815-00a0c906bed8}(1) + VID_2266&PID_0007(7)</USBConnectionRoute></ChronosDeviceInfo>;"<?xml version=""1.0""?>\n<Clock xmlns:dt=""urn:schemas-microsoft-com:datatypes""><Description dt:dt=""string"">E-Prime Primary Realtime Clock</Description><StartTime><Timestamp dt:dt=""int"">0</Timestamp><DateUtc dt:dt=""string"">2021-05-07T10:57:23Z</DateUtc></StartTime><FrequencyChanges><FrequencyChange><Frequency dt:dt=""r8"">2435576</Frequency><Timestamp dt:dt=""r8"">4273787204</Timestamp><Current dt:dt=""r8"">0</Current><DateUtc dt:dt=""string"">2021-05-07T10:57:23Z</DateUtc></FrequencyChange></FrequencyChanges></Clock>\n";EXP2.2_290421-1018-1;60.024;1.0.0.375;1;Chronos;-20701418;Full;3.0.3.80;3.0.3.80;05/07/2021;07/05/2021 10:57;12:57:23;3.0.3.82;2;Chronos;;2;1;2;TESTVV;Generalbloc;;;;pretest;Chronos;40;1;VV_290421/880.png;2;1;40;-20;blocVVstim;listVVTrial;;;;Chronos;0;;0;-1;756387;200;;0;0;1;1;Chronos;0;0;756587;300;1;674;757261;1;1;Chronos;0;0;756887;0;1;374;757261;;;;;;;;;;;;;;;;;;;
EXP2.2_290421;1018;1;Chronos;<ChronosDeviceInfo><FriendlyName>MyChronos</FriendlyName><DeviceIndex>1</DeviceIndex><SerialNumber>CHR-04301-1186</SerialNumber><EBNVersion>3.0.3.80</EBNVersion><FirmwareVersion>1.33</FirmwareVersion><APIVersion>1.33</APIVersion><USBHostControllerVersion>2.0</USBHostControllerVersion><USBConnectionRoute>USB#ROOT_HUB20#4&9bd2e8a&0#{f18a0e88-c30c-11d0-8815-00a0c906bed8} + USB#VID_8087&PID_0024#5&3026c139&0&1#{f18a0e88-c30c-11d0-8815-00a0c906bed8}(1) + VID_2266&PID_0007(7)</USBConnectionRoute></ChronosDeviceInfo>;"<?xml version=""1.0""?>\n<Clock xmlns:dt=""urn:schemas-microsoft-com:datatypes""><Description dt:dt=""string"">E-Prime Primary Realtime Clock</Description><StartTime><Timestamp dt:dt=""int"">0</Timestamp><DateUtc dt:dt=""string"">2021-05-07T10:57:23Z</DateUtc></StartTime><FrequencyChanges><FrequencyChange><Frequency dt:dt=""r8"">2435576</Frequency><Timestamp dt:dt=""r8"">4273787204</Timestamp><Current dt:dt=""r8"">0</Current><DateUtc dt:dt=""string"">2021-05-07T10:57:23Z</DateUtc></FrequencyChange></FrequencyChanges></Clock>\n";EXP2.2_290421-1018-1;60.024;1.0.0.375;1;Chronos;-20701418;Full;3.0.3.80;3.0.3.80;05/07/2021;07/05/2021 10:57;12:57:23;3.0.3.82;2;Chronos;;2;1;2;TESTVV;Generalbloc;;;;pretest;Chronos;41;5;VV_290421/915.png;9;1;41;15;blocVVstim;listVVTrial;;;;Chronos;0;;0;-1;758786;200;;0;0;1;5;Chronos;0;0;758986;300;5;551;759537;1;5;Chronos;0;0;759286;0;5;251;759537;;;;;;;;;;;;;;;;;;;
EXP2.2_290421;1018;1;Chronos;<ChronosDeviceInfo><FriendlyName>MyChronos</FriendlyName><DeviceIndex>1</DeviceIndex><SerialNumber>CHR-04301-1186</SerialNumber><EBNVersion>3.0.3.80</EBNVersion><FirmwareVersion>1.33</FirmwareVersion><APIVersion>1.33</APIVersion><USBHostControllerVersion>2.0</USBHostControllerVersion><USBConnectionRoute>USB#ROOT_HUB20#4&9bd2e8a&0#{f18a0e88-c30c-11d0-8815-00a0c906bed8} + USB#VID_8087&PID_0024#5&3026c139&0&1#{f18a0e88-c30c-11d0-8815-00a0c906bed8}(1) + VID_2266&PID_0007(7)</USBConnectionRoute></ChronosDeviceInfo>;"<?xml version=""1.0""?>\n<Clock xmlns:dt=""urn:schemas-microsoft-com:datatypes""><Description dt:dt=""string"">E-Prime Primary Realtime Clock</Description><StartTime><Timestamp dt:dt=""int"">0</Timestamp><DateUtc dt:dt=""string"">2021-05-07T10:57:23Z</DateUtc></StartTime><FrequencyChanges><FrequencyChange><Frequency dt:dt=""r8"">2435576</Frequency><Timestamp dt:dt=""r8"">4273787204</Timestamp><Current dt:dt=""r8"">0</Current><DateUtc dt:dt=""string"">2021-05-07T10:57:23Z</DateUtc></FrequencyChange></FrequencyChanges></Clock>\n";EXP2.2_290421-1018-1;60.024;1.0.0.375;1;Chronos;-20701418;Full;3.0.3.80;3.0.3.80;05/07/2021;07/05/2021 10:57;12:57:23;3.0.3.82;2;Chronos;;2;1;2;TESTVV;Generalbloc;;;;pretest;Chronos;42;1;VV_290421/895.png;5;1;42;-5;blocVVstim;listVVTrial;;;;Chronos;0;;0;-1;761052;200;;0;0;1;1;Chronos;0;0;761252;300;1;662;761914;1;1;Chronos;0;0;761552;0;1;362;761914;;;;;;;;;;;;;;;;;;;
EXP2.2_290421;1018;1;Chronos;<ChronosDeviceInfo><FriendlyName>MyChronos</FriendlyName><DeviceIndex>1</DeviceIndex><SerialNumber>CHR-04301-1186</SerialNumber><EBNVersion>3.0.3.80</EBNVersion><FirmwareVersion>1.33</FirmwareVersion><APIVersion>1.33</APIVersion><USBHostControllerVersion>2.0</USBHostControllerVersion><USBConnectionRoute>USB#ROOT_HUB20#4&9bd2e8a&0#{f18a0e88-c30c-11d0-8815-00a0c906bed8} + USB#VID_8087&PID_0024#5&3026c139&0&1#{f18a0e88-c30c-11d0-8815-00a0c906bed8}(1) + VID_2266&PID_0007(7)</USBConnectionRoute></ChronosDeviceInfo>;"<?xml version=""1.0""?>\n<Clock xmlns:dt=""urn:schemas-microsoft-com:datatypes""><Description dt:dt=""string"">E-Prime Primary Realtime Clock</Description><StartTime><Timestamp dt:dt=""int"">0</Timestamp><DateUtc dt:dt=""string"">2021-05-07T10:57:23Z</DateUtc></StartTime><FrequencyChanges><FrequencyChange><Frequency dt:dt=""r8"">2435576</Frequency><Timestamp dt:dt=""r8"">4273787204</Timestamp><Current dt:dt=""r8"">0</Current><DateUtc dt:dt=""string"">2021-05-07T10:57:23Z</DateUtc></FrequencyChange></FrequencyChanges></Clock>\n";EXP2.2_290421-1018-1;60.024;1.0.0.375;1;Chronos;-20701418;Full;3.0.3.80;3.0.3.80;05/07/2021;07/05/2021 10:57;12:57:23;3.0.3.82;2;Chronos;;2;1;2;TESTVV;Generalbloc;;;;pretest;Chronos;43;5;VV_290421/920.png;10;1;43;20;blocVVstim;listVVTrial;;;;Chronos;0;;1;-1;763434;200;;0;0;1;5;Chronos;1;0;763634;300;5;605;764239;1;5;Chronos;0;0;763934;0;5;305;764239;;;;;;;;;;;;;;;;;;;
EXP2.2_290421;1018;1;Chronos;<ChronosDeviceInfo><FriendlyName>MyChronos</FriendlyName><DeviceIndex>1</DeviceIndex><SerialNumber>CHR-04301-1186</SerialNumber><EBNVersion>3.0.3.80</EBNVersion><FirmwareVersion>1.33</FirmwareVersion><APIVersion>1.33</APIVersion><USBHostControllerVersion>2.0</USBHostControllerVersion><USBConnectionRoute>USB#ROOT_HUB20#4&9bd2e8a&0#{f18a0e88-c30c-11d0-8815-00a0c906bed8} + USB#VID_8087&PID_0024#5&3026c139&0&1#{f18a0e88-c30c-11d0-8815-00a0c906bed8}(1) + VID_2266&PID_0007(7)</USBConnectionRoute></ChronosDeviceInfo>;"<?xml version=""1.0""?>\n<Clock xmlns:dt=""urn:schemas-microsoft-com:datatypes""><Description dt:dt=""string"">E-Prime Primary Realtime Clock</Description><StartTime><Timestamp dt:dt=""int"">0</Timestamp><DateUtc dt:dt=""string"">2021-05-07T10:57:23Z</DateUtc></StartTime><FrequencyChanges><FrequencyChange><Frequency dt:dt=""r8"">2435576</Frequency><Timestamp dt:dt=""r8"">4273787204</Timestamp><Current dt:dt=""r8"">0</Current><DateUtc dt:dt=""string"">2021-05-07T10:57:23Z</DateUtc></FrequencyChange></FrequencyChanges></Clock>\n";EXP2.2_290421-1018-1;60.024;1.0.0.375;1;Chronos;-20701418;Full;3.0.3.80;3.0.3.80;05/07/2021;07/05/2021 10:57;12:57:23;3.0.3.82;2;Chronos;;2;1;2;TESTVV;Generalbloc;;;;pretest;Chronos;44;1;VV_290421/875.png;1;1;44;-25;blocVVstim;listVVTrial;;;;Chronos;0;;0;-1;765767;200;;0;0;1;1;Chronos;0;0;765967;300;1;617;766584;1;1;Chronos;0;0;766267;0;1;317;766584;;;;;;;;;;;;;;;;;;;
EXP2.2_290421;1018;1;Chronos;<ChronosDeviceInfo><FriendlyName>MyChronos</FriendlyName><DeviceIndex>1</DeviceIndex><SerialNumber>CHR-04301-1186</SerialNumber><EBNVersion>3.0.3.80</EBNVersion><FirmwareVersion>1.33</FirmwareVersion><APIVersion>1.33</APIVersion><USBHostControllerVersion>2.0</USBHostControllerVersion><USBConnectionRoute>USB#ROOT_HUB20#4&9bd2e8a&0#{f18a0e88-c30c-11d0-8815-00a0c906bed8} + USB#VID_8087&PID_0024#5&3026c139&0&1#{f18a0e88-c30c-11d0-8815-00a0c906bed8}(1) + VID_2266&PID_0007(7)</USBConnectionRoute></ChronosDeviceInfo>;"<?xml version=""1.0""?>\n<Clock xmlns:dt=""urn:schemas-microsoft-com:datatypes""><Description dt:dt=""string"">E-Prime Primary Realtime Clock</Description><StartTime><Timestamp dt:dt=""int"">0</Timestamp><DateUtc dt:dt=""string"">2021-05-07T10:57:23Z</DateUtc></StartTime><FrequencyChanges><FrequencyChange><Frequency dt:dt=""r8"">2435576</Frequency><Timestamp dt:dt=""r8"">4273787204</Timestamp><Current dt:dt=""r8"">0</Current><DateUtc dt:dt=""string"">2021-05-07T10:57:23Z</DateUtc></FrequencyChange></FrequencyChanges></Clock>\n";EXP2.2_290421-1018-1;60.024;1.0.0.375;1;Chronos;-20701418;Full;3.0.3.80;3.0.3.80;05/07/2021;07/05/2021 10:57;12:57:23;3.0.3.82;2;Chronos;;2;1;2;TESTVV;Generalbloc;;;;pretest;Chronos;45;1;VV_290421/885.png;3;1;45;-15;blocVVstim;listVVTrial;;;;Chronos;0;;1;-1;768099;200;;0;0;1;1;Chronos;1;0;768299;300;1;720;769019;1;1;Chronos;0;0;768599;0;1;420;769019;;;;;;;;;;;;;;;;;;;
EXP2.2_290421;1018;1;Chronos;<ChronosDeviceInfo><FriendlyName>MyChronos</FriendlyName><DeviceIndex>1</DeviceIndex><SerialNumber>CHR-04301-1186</SerialNumber><EBNVersion>3.0.3.80</EBNVersion><FirmwareVersion>1.33</FirmwareVersion><APIVersion>1.33</APIVersion><USBHostControllerVersion>2.0</USBHostControllerVersion><USBConnectionRoute>USB#ROOT_HUB20#4&9bd2e8a&0#{f18a0e88-c30c-11d0-8815-00a0c906bed8} + USB#VID_8087&PID_0024#5&3026c139&0&1#{f18a0e88-c30c-11d0-8815-00a0c906bed8}(1) + VID_2266&PID_0007(7)</USBConnectionRoute></ChronosDeviceInfo>;"<?xml version=""1.0""?>\n<Clock xmlns:dt=""urn:schemas-microsoft-com:datatypes""><Description dt:dt=""string"">E-Prime Primary Realtime Clock</Description><StartTime><Timestamp dt:dt=""int"">0</Timestamp><DateUtc dt:dt=""string"">2021-05-07T10:57:23Z</DateUtc></StartTime><FrequencyChanges><FrequencyChange><Frequency dt:dt=""r8"">2435576</Frequency><Timestamp dt:dt=""r8"">4273787204</Timestamp><Current dt:dt=""r8"">0</Current><DateUtc dt:dt=""string"">2021-05-07T10:57:23Z</DateUtc></FrequencyChange></FrequencyChanges></Clock>\n";EXP2.2_290421-1018-1;60.024;1.0.0.375;1;Chronos;-20701418;Full;3.0.3.80;3.0.3.80;05/07/2021;07/05/2021 10:57;12:57:23;3.0.3.82;2;Chronos;;2;1;2;TESTVV;Generalbloc;;;;pretest;Chronos;46;5;VV_290421/910.png;8;1;46;10;blocVVstim;listVVTrial;;;;Chronos;0;;0;0;770532;200;;0;0;1;5;Chronos;0;0;770732;300;5;665;771397;1;5;Chronos;0;0;771032;0;5;365;771397;;;;;;;;;;;;;;;;;;;
EXP2.2_290421;1018;1;Chronos;<ChronosDeviceInfo><FriendlyName>MyChronos</FriendlyName><DeviceIndex>1</DeviceIndex><SerialNumber>CHR-04301-1186</SerialNumber><EBNVersion>3.0.3.80</EBNVersion><FirmwareVersion>1.33</FirmwareVersion><APIVersion>1.33</APIVersion><USBHostControllerVersion>2.0</USBHostControllerVersion><USBConnectionRoute>USB#ROOT_HUB20#4&9bd2e8a&0#{f18a0e88-c30c-11d0-8815-00a0c906bed8} + USB#VID_8087&PID_0024#5&3026c139&0&1#{f18a0e88-c30c-11d0-8815-00a0c906bed8}(1) + VID_2266&PID_0007(7)</USBConnectionRoute></ChronosDeviceInfo>;"<?xml version=""1.0""?>\n<Clock xmlns:dt=""urn:schemas-microsoft-com:datatypes""><Description dt:dt=""string"">E-Prime Primary Realtime Clock</Description><StartTime><Timestamp dt:dt=""int"">0</Timestamp><DateUtc dt:dt=""string"">2021-05-07T10:57:23Z</DateUtc></StartTime><FrequencyChanges><FrequencyChange><Frequency dt:dt=""r8"">2435576</Frequency><Timestamp dt:dt=""r8"">4273787204</Timestamp><Current dt:dt=""r8"">0</Current><DateUtc dt:dt=""string"">2021-05-07T10:57:23Z</DateUtc></FrequencyChange></FrequencyChanges></Clock>\n";EXP2.2_290421-1018-1;60.024;1.0.0.375;1;Chronos;-20701418;Full;3.0.3.80;3.0.3.80;05/07/2021;07/05/2021 10:57;12:57:23;3.0.3.82;2;Chronos;;2;1;2;TESTVV;Generalbloc;;;;pretest;Chronos;47;5;VV_290421/925.png;11;1;47;25;blocVVstim;listVVTrial;;;;Chronos;0;;0;-1;772914;200;;0;0;1;5;Chronos;0;0;773114;300;5;610;773724;1;5;Chronos;0;0;773414;0;5;310;773724;;;;;;;;;;;;;;;;;;;
EXP2.2_290421;1018;1;Chronos;<ChronosDeviceInfo><FriendlyName>MyChronos</FriendlyName><DeviceIndex>1</DeviceIndex><SerialNumber>CHR-04301-1186</SerialNumber><EBNVersion>3.0.3.80</EBNVersion><FirmwareVersion>1.33</FirmwareVersion><APIVersion>1.33</APIVersion><USBHostControllerVersion>2.0</USBHostControllerVersion><USBConnectionRoute>USB#ROOT_HUB20#4&9bd2e8a&0#{f18a0e88-c30c-11d0-8815-00a0c906bed8} + USB#VID_8087&PID_0024#5&3026c139&0&1#{f18a0e88-c30c-11d0-8815-00a0c906bed8}(1) + VID_2266&PID_0007(7)</USBConnectionRoute></ChronosDeviceInfo>;"<?xml version=""1.0""?>\n<Clock xmlns:dt=""urn:schemas-microsoft-com:datatypes""><Description dt:dt=""string"">E-Prime Primary Realtime Clock</Description><StartTime><Timestamp dt:dt=""int"">0</Timestamp><DateUtc dt:dt=""string"">2021-05-07T10:57:23Z</DateUtc></StartTime><FrequencyChanges><FrequencyChange><Frequency dt:dt=""r8"">2435576</Frequency><Timestamp dt:dt=""r8"">4273787204</Timestamp><Current dt:dt=""r8"">0</Current><DateUtc dt:dt=""string"">2021-05-07T10:57:23Z</DateUtc></FrequencyChange></FrequencyChanges></Clock>\n";EXP2.2_290421-1018-1;60.024;1.0.0.375;1;Chronos;-20701418;Full;3.0.3.80;3.0.3.80;05/07/2021;07/05/2021 10:57;12:57:23;3.0.3.82;2;Chronos;;2;1;2;TESTVV;Generalbloc;;;;pretest;Chronos;48;15;VV_290421/900.png;6;1;48;0;blocVVstim;listVVTrial;;;;Chronos;0;;0;0;775247;200;;0;0;0;15;Chronos;0;0;775447;300;5;737;776184;0;15;Chronos;0;0;775747;0;5;437;776184;;;;;;;;;;;;;;;;;;;
EXP2.2_290421;1018;1;Chronos;<ChronosDeviceInfo><FriendlyName>MyChronos</FriendlyName><DeviceIndex>1</DeviceIndex><SerialNumber>CHR-04301-1186</SerialNumber><EBNVersion>3.0.3.80</EBNVersion><FirmwareVersion>1.33</FirmwareVersion><APIVersion>1.33</APIVersion><USBHostControllerVersion>2.0</USBHostControllerVersion><USBConnectionRoute>USB#ROOT_HUB20#4&9bd2e8a&0#{f18a0e88-c30c-11d0-8815-00a0c906bed8} + USB#VID_8087&PID_0024#5&3026c139&0&1#{f18a0e88-c30c-11d0-8815-00a0c906bed8}(1) + VID_2266&PID_0007(7)</USBConnectionRoute></ChronosDeviceInfo>;"<?xml version=""1.0""?>\n<Clock xmlns:dt=""urn:schemas-microsoft-com:datatypes""><Description dt:dt=""string"">E-Prime Primary Realtime Clock</Description><StartTime><Timestamp dt:dt=""int"">0</Timestamp><DateUtc dt:dt=""string"">2021-05-07T10:57:23Z</DateUtc></StartTime><FrequencyChanges><FrequencyChange><Frequency dt:dt=""r8"">2435576</Frequency><Timestamp dt:dt=""r8"">4273787204</Timestamp><Current dt:dt=""r8"">0</Current><DateUtc dt:dt=""string"">2021-05-07T10:57:23Z</DateUtc></FrequencyChange></FrequencyChanges></Clock>\n";EXP2.2_290421-1018-1;60.024;1.0.0.375;1;Chronos;-20701418;Full;3.0.3.80;3.0.3.80;05/07/2021;07/05/2021 10:57;12:57:23;3.0.3.82;2;Chronos;;2;1;2;TESTVV;Generalbloc;;;;pretest;Chronos;49;1;VV_290421/895.png;5;1;49;-5;blocVVstim;listVVTrial;;;;Chronos;0;;0;0;777713;199;;0;0;0;1;Chronos;1;-1;777912;300;5;596;778508;0;1;Chronos;1;0;778212;0;5;296;778508;;;;;;;;;;;;;;;;;;;
EXP2.2_290421;1018;1;Chronos;<ChronosDeviceInfo><FriendlyName>MyChronos</FriendlyName><DeviceIndex>1</DeviceIndex><SerialNumber>CHR-04301-1186</SerialNumber><EBNVersion>3.0.3.80</EBNVersion><FirmwareVersion>1.33</FirmwareVersion><APIVersion>1.33</APIVersion><USBHostControllerVersion>2.0</USBHostControllerVersion><USBConnectionRoute>USB#ROOT_HUB20#4&9bd2e8a&0#{f18a0e88-c30c-11d0-8815-00a0c906bed8} + USB#VID_8087&PID_0024#5&3026c139&0&1#{f18a0e88-c30c-11d0-8815-00a0c906bed8}(1) + VID_2266&PID_0007(7)</USBConnectionRoute></ChronosDeviceInfo>;"<?xml version=""1.0""?>\n<Clock xmlns:dt=""urn:schemas-microsoft-com:datatypes""><Description dt:dt=""string"">E-Prime Primary Realtime Clock</Description><StartTime><Timestamp dt:dt=""int"">0</Timestamp><DateUtc dt:dt=""string"">2021-05-07T10:57:23Z</DateUtc></StartTime><FrequencyChanges><FrequencyChange><Frequency dt:dt=""r8"">2435576</Frequency><Timestamp dt:dt=""r8"">4273787204</Timestamp><Current dt:dt=""r8"">0</Current><DateUtc dt:dt=""string"">2021-05-07T10:57:23Z</DateUtc></FrequencyChange></FrequencyChanges></Clock>\n";EXP2.2_290421-1018-1;60.024;1.0.0.375;1;Chronos;-20701418;Full;3.0.3.80;3.0.3.80;05/07/2021;07/05/2021 10:57;12:57:23;3.0.3.82;2;Chronos;;2;1;2;TESTVV;Generalbloc;;;;pretest;Chronos;50;5;VV_290421/925.png;11;1;50;25;blocVVstim;listVVTrial;;;;Chronos;0;;1;-1;780028;200;;0;0;1;5;Chronos;0;0;780228;300;5;410;780638;1;5;Chronos;0;0;780528;0;5;110;780638;;;;;;;;;;;;;;;;;;;
EXP2.2_290421;1018;1;Chronos;<ChronosDeviceInfo><FriendlyName>MyChronos</FriendlyName><DeviceIndex>1</DeviceIndex><SerialNumber>CHR-04301-1186</SerialNumber><EBNVersion>3.0.3.80</EBNVersion><FirmwareVersion>1.33</FirmwareVersion><APIVersion>1.33</APIVersion><USBHostControllerVersion>2.0</USBHostControllerVersion><USBConnectionRoute>USB#ROOT_HUB20#4&9bd2e8a&0#{f18a0e88-c30c-11d0-8815-00a0c906bed8} + USB#VID_8087&PID_0024#5&3026c139&0&1#{f18a0e88-c30c-11d0-8815-00a0c906bed8}(1) + VID_2266&PID_0007(7)</USBConnectionRoute></ChronosDeviceInfo>;"<?xml version=""1.0""?>\n<Clock xmlns:dt=""urn:schemas-microsoft-com:datatypes""><Description dt:dt=""string"">E-Prime Primary Realtime Clock</Description><StartTime><Timestamp dt:dt=""int"">0</Timestamp><DateUtc dt:dt=""string"">2021-05-07T10:57:23Z</DateUtc></StartTime><FrequencyChanges><FrequencyChange><Frequency dt:dt=""r8"">2435576</Frequency><Timestamp dt:dt=""r8"">4273787204</Timestamp><Current dt:dt=""r8"">0</Current><DateUtc dt:dt=""string"">2021-05-07T10:57:23Z</DateUtc></FrequencyChange></FrequencyChanges></Clock>\n";EXP2.2_290421-1018-1;60.024;1.0.0.375;1;Chronos;-20701418;Full;3.0.3.80;3.0.3.80;05/07/2021;07/05/2021 10:57;12:57:23;3.0.3.82;2;Chronos;;2;1;2;TESTVV;Generalbloc;;;;pretest;Chronos;51;5;VV_290421/905.png;7;1;51;5;blocVVstim;listVVTrial;;;;Chronos;0;;0;0;782161;200;;0;0;1;5;Chronos;0;0;782361;300;5;668;783029;1;5;Chronos;0;0;782661;0;5;368;783029;;;;;;;;;;;;;;;;;;;
EXP2.2_290421;1018;1;Chronos;<ChronosDeviceInfo><FriendlyName>MyChronos</FriendlyName><DeviceIndex>1</DeviceIndex><SerialNumber>CHR-04301-1186</SerialNumber><EBNVersion>3.0.3.80</EBNVersion><FirmwareVersion>1.33</FirmwareVersion><APIVersion>1.33</APIVersion><USBHostControllerVersion>2.0</USBHostControllerVersion><USBConnectionRoute>USB#ROOT_HUB20#4&9bd2e8a&0#{f18a0e88-c30c-11d0-8815-00a0c906bed8} + USB#VID_8087&PID_0024#5&3026c139&0&1#{f18a0e88-c30c-11d0-8815-00a0c906bed8}(1) + VID_2266&PID_0007(7)</USBConnectionRoute></ChronosDeviceInfo>;"<?xml version=""1.0""?>\n<Clock xmlns:dt=""urn:schemas-microsoft-com:datatypes""><Description dt:dt=""string"">E-Prime Primary Realtime Clock</Description><StartTime><Timestamp dt:dt=""int"">0</Timestamp><DateUtc dt:dt=""string"">2021-05-07T10:57:23Z</DateUtc></StartTime><FrequencyChanges><FrequencyChange><Frequency dt:dt=""r8"">2435576</Frequency><Timestamp dt:dt=""r8"">4273787204</Timestamp><Current dt:dt=""r8"">0</Current><DateUtc dt:dt=""string"">2021-05-07T10:57:23Z</DateUtc></FrequencyChange></FrequencyChanges></Clock>\n";EXP2.2_290421-1018-1;60.024;1.0.0.375;1;Chronos;-20701418;Full;3.0.3.80;3.0.3.80;05/07/2021;07/05/2021 10:57;12:57:23;3.0.3.82;2;Chronos;;2;1;2;TESTVV;Generalbloc;;;;pretest;Chronos;52;5;VV_290421/905.png;7;1;52;5;blocVVstim;listVVTrial;;;;Chronos;0;;0;-1;784543;200;;0;0;1;5;Chronos;0;0;784743;300;5;616;785359;1;5;Chronos;0;0;785043;0;5;316;785359;;;;;;;;;;;;;;;;;;;
EXP2.2_290421;1018;1;Chronos;<ChronosDeviceInfo><FriendlyName>MyChronos</FriendlyName><DeviceIndex>1</DeviceIndex><SerialNumber>CHR-04301-1186</SerialNumber><EBNVersion>3.0.3.80</EBNVersion><FirmwareVersion>1.33</FirmwareVersion><APIVersion>1.33</APIVersion><USBHostControllerVersion>2.0</USBHostControllerVersion><USBConnectionRoute>USB#ROOT_HUB20#4&9bd2e8a&0#{f18a0e88-c30c-11d0-8815-00a0c906bed8} + USB#VID_8087&PID_0024#5&3026c139&0&1#{f18a0e88-c30c-11d0-8815-00a0c906bed8}(1) + VID_2266&PID_0007(7)</USBConnectionRoute></ChronosDeviceInfo>;"<?xml version=""1.0""?>\n<Clock xmlns:dt=""urn:schemas-microsoft-com:datatypes""><Description dt:dt=""string"">E-Prime Primary Realtime Clock</Description><StartTime><Timestamp dt:dt=""int"">0</Timestamp><DateUtc dt:dt=""string"">2021-05-07T10:57:23Z</DateUtc></StartTime><FrequencyChanges><FrequencyChange><Frequency dt:dt=""r8"">2435576</Frequency><Timestamp dt:dt=""r8"">4273787204</Timestamp><Current dt:dt=""r8"">0</Current><DateUtc dt:dt=""string"">2021-05-07T10:57:23Z</DateUtc></FrequencyChange></FrequencyChanges></Clock>\n";EXP2.2_290421-1018-1;60.024;1.0.0.375;1;Chronos;-20701418;Full;3.0.3.80;3.0.3.80;05/07/2021;07/05/2021 10:57;12:57:23;3.0.3.82;2;Chronos;;2;1;2;TESTVV;Generalbloc;;;;pretest;Chronos;53;5;VV_290421/910.png;8;1;53;10;blocVVstim;listVVTrial;;;;Chronos;0;;0;0;786876;200;;0;0;1;5;Chronos;0;0;787076;300;5;677;787753;1;5;Chronos;0;0;787376;0;5;377;787753;;;;;;;;;;;;;;;;;;;
EXP2.2_290421;1018;1;Chronos;<ChronosDeviceInfo><FriendlyName>MyChronos</FriendlyName><DeviceIndex>1</DeviceIndex><SerialNumber>CHR-04301-1186</SerialNumber><EBNVersion>3.0.3.80</EBNVersion><FirmwareVersion>1.33</FirmwareVersion><APIVersion>1.33</APIVersion><USBHostControllerVersion>2.0</USBHostControllerVersion><USBConnectionRoute>USB#ROOT_HUB20#4&9bd2e8a&0#{f18a0e88-c30c-11d0-8815-00a0c906bed8} + USB#VID_8087&PID_0024#5&3026c139&0&1#{f18a0e88-c30c-11d0-8815-00a0c906bed8}(1) + VID_2266&PID_0007(7)</USBConnectionRoute></ChronosDeviceInfo>;"<?xml version=""1.0""?>\n<Clock xmlns:dt=""urn:schemas-microsoft-com:datatypes""><Description dt:dt=""string"">E-Prime Primary Realtime Clock</Description><StartTime><Timestamp dt:dt=""int"">0</Timestamp><DateUtc dt:dt=""string"">2021-05-07T10:57:23Z</DateUtc></StartTime><FrequencyChanges><FrequencyChange><Frequency dt:dt=""r8"">2435576</Frequency><Timestamp dt:dt=""r8"">4273787204</Timestamp><Current dt:dt=""r8"">0</Current><DateUtc dt:dt=""string"">2021-05-07T10:57:23Z</DateUtc></FrequencyChange></FrequencyChanges></Clock>\n";EXP2.2_290421-1018-1;60.024;1.0.0.375;1;Chronos;-20701418;Full;3.0.3.80;3.0.3.80;05/07/2021;07/05/2021 10:57;12:57:23;3.0.3.82;2;Chronos;;2;1;2;TESTVV;Generalbloc;;;;pretest;Chronos;54;5;VV_290421/920.png;10;1;54;20;blocVVstim;listVVTrial;;;;Chronos;0;;0;0;789275;200;;0;0;1;5;Chronos;0;0;789475;300;5;846;790321;1;5;Chronos;0;0;789775;0;5;546;790321;;;;;;;;;;;;;;;;;;;
EXP2.2_290421;1018;1;Chronos;<ChronosDeviceInfo><FriendlyName>MyChronos</FriendlyName><DeviceIndex>1</DeviceIndex><SerialNumber>CHR-04301-1186</SerialNumber><EBNVersion>3.0.3.80</EBNVersion><FirmwareVersion>1.33</FirmwareVersion><APIVersion>1.33</APIVersion><USBHostControllerVersion>2.0</USBHostControllerVersion><USBConnectionRoute>USB#ROOT_HUB20#4&9bd2e8a&0#{f18a0e88-c30c-11d0-8815-00a0c906bed8} + USB#VID_8087&PID_0024#5&3026c139&0&1#{f18a0e88-c30c-11d0-8815-00a0c906bed8}(1) + VID_2266&PID_0007(7)</USBConnectionRoute></ChronosDeviceInfo>;"<?xml version=""1.0""?>\n<Clock xmlns:dt=""urn:schemas-microsoft-com:datatypes""><Description dt:dt=""string"">E-Prime Primary Realtime Clock</Description><StartTime><Timestamp dt:dt=""int"">0</Timestamp><DateUtc dt:dt=""string"">2021-05-07T10:57:23Z</DateUtc></StartTime><FrequencyChanges><FrequencyChange><Frequency dt:dt=""r8"">2435576</Frequency><Timestamp dt:dt=""r8"">4273787204</Timestamp><Current dt:dt=""r8"">0</Current><DateUtc dt:dt=""string"">2021-05-07T10:57:23Z</DateUtc></FrequencyChange></FrequencyChanges></Clock>\n";EXP2.2_290421-1018-1;60.024;1.0.0.375;1;Chronos;-20701418;Full;3.0.3.80;3.0.3.80;05/07/2021;07/05/2021 10:57;12:57:23;3.0.3.82;2;Chronos;;2;1;2;TESTVV;Generalbloc;;;;pretest;Chronos;55;15;VV_290421/900.png;6;1;55;0;blocVVstim;listVVTrial;;;;Chronos;0;;0;0;791841;200;;0;0;0;15;Chronos;0;0;792041;299;5;653;792694;0;15;Chronos;1;-1;792340;0;5;354;792694;;;;;;;;;;;;;;;;;;;
EXP2.2_290421;1018;1;Chronos;<ChronosDeviceInfo><FriendlyName>MyChronos</FriendlyName><DeviceIndex>1</DeviceIndex><SerialNumber>CHR-04301-1186</SerialNumber><EBNVersion>3.0.3.80</EBNVersion><FirmwareVersion>1.33</FirmwareVersion><APIVersion>1.33</APIVersion><USBHostControllerVersion>2.0</USBHostControllerVersion><USBConnectionRoute>USB#ROOT_HUB20#4&9bd2e8a&0#{f18a0e88-c30c-11d0-8815-00a0c906bed8} + USB#VID_8087&PID_0024#5&3026c139&0&1#{f18a0e88-c30c-11d0-8815-00a0c906bed8}(1) + VID_2266&PID_0007(7)</USBConnectionRoute></ChronosDeviceInfo>;"<?xml version=""1.0""?>\n<Clock xmlns:dt=""urn:schemas-microsoft-com:datatypes""><Description dt:dt=""string"">E-Prime Primary Realtime Clock</Description><StartTime><Timestamp dt:dt=""int"">0</Timestamp><DateUtc dt:dt=""string"">2021-05-07T10:57:23Z</DateUtc></StartTime><FrequencyChanges><FrequencyChange><Frequency dt:dt=""r8"">2435576</Frequency><Timestamp dt:dt=""r8"">4273787204</Timestamp><Current dt:dt=""r8"">0</Current><DateUtc dt:dt=""string"">2021-05-07T10:57:23Z</DateUtc></FrequencyChange></FrequencyChanges></Clock>\n";EXP2.2_290421-1018-1;60.024;1.0.0.375;1;Chronos;-20701418;Full;3.0.3.80;3.0.3.80;05/07/2021;07/05/2021 10:57;12:57:23;3.0.3.82;2;Chronos;;2;1;2;TESTVV;Generalbloc;;;;pretest;Chronos;56;1;VV_290421/890.png;4;1;56;-10;blocVVstim;listVVTrial;;;;Chronos;0;;0;-1;794223;200;;0;0;1;1;Chronos;0;0;794423;300;1;728;795151;1;1;Chronos;0;0;794723;0;1;428;795151;;;;;;;;;;;;;;;;;;;
EXP2.2_290421;1018;1;Chronos;<ChronosDeviceInfo><FriendlyName>MyChronos</FriendlyName><DeviceIndex>1</DeviceIndex><SerialNumber>CHR-04301-1186</SerialNumber><EBNVersion>3.0.3.80</EBNVersion><FirmwareVersion>1.33</FirmwareVersion><APIVersion>1.33</APIVersion><USBHostControllerVersion>2.0</USBHostControllerVersion><USBConnectionRoute>USB#ROOT_HUB20#4&9bd2e8a&0#{f18a0e88-c30c-11d0-8815-00a0c906bed8} + USB#VID_8087&PID_0024#5&3026c139&0&1#{f18a0e88-c30c-11d0-8815-00a0c906bed8}(1) + VID_2266&PID_0007(7)</USBConnectionRoute></ChronosDeviceInfo>;"<?xml version=""1.0""?>\n<Clock xmlns:dt=""urn:schemas-microsoft-com:datatypes""><Description dt:dt=""string"">E-Prime Primary Realtime Clock</Description><StartTime><Timestamp dt:dt=""int"">0</Timestamp><DateUtc dt:dt=""string"">2021-05-07T10:57:23Z</DateUtc></StartTime><FrequencyChanges><FrequencyChange><Frequency dt:dt=""r8"">2435576</Frequency><Timestamp dt:dt=""r8"">4273787204</Timestamp><Current dt:dt=""r8"">0</Current><DateUtc dt:dt=""string"">2021-05-07T10:57:23Z</DateUtc></FrequencyChange></FrequencyChanges></Clock>\n";EXP2.2_290421-1018-1;60.024;1.0.0.375;1;Chronos;-20701418;Full;3.0.3.80;3.0.3.80;05/07/2021;07/05/2021 10:57;12:57:23;3.0.3.82;2;Chronos;;2;1;2;TESTVV;Generalbloc;;;;pretest;Chronos;57;5;VV_290421/915.png;9;1;57;15;blocVVstim;listVVTrial;;;;Chronos;0;;0;-1;796672;200;;0;0;1;5;Chronos;0;0;796872;300;5;584;797456;1;5;Chronos;0;0;797172;0;5;284;797456;;;;;;;;;;;;;;;;;;;
