ExperimentName;Subject;Session;calibrage.DEVICE[Session];Chronos.BoxInfo;Clock.Information;DataFile.Basename;Display.RefreshRate;ExperimentVersion;Group;Hello.DEVICE;RandomSeed;RuntimeCapabilities;RuntimeVersion;RuntimeVersionExpected;SessionDate;SessionStartDateTimeUtc;SessionTime;StudioVersion;Block;calibrage.DEVICE[Block];EndTraining.DEVICE;Generalbloc;Generalbloc.Cycle;Generalbloc.Sample;Procedure[Block];Running[Block];TextDisplay1.DEVICE;TextDisplay2.DEVICE;TextTraining.DEVICE;time;VVInst.DEVICE[Block];Trial;correct;image;listVVTrial;listVVTrial.Cycle;listVVTrial.Sample;offset;Procedure[Trial];Running[Trial];SpatialTaskTraining;SpatialTaskTraining.Cycle;SpatialTaskTraining.Sample;VVInst.DEVICE[Trial];vvstimnoresp.ACC;vvstimnoresp.CRESP;vvstimnoresp.DurationError;vvstimnoresp.OnsetDelay;vvstimnoresp.OnsetTime;vvstimnoresp.OnsetToOnsetTime;vvstimnoresp.RESP;vvstimnoresp.RT;vvstimnoresp.RTTime;vvstimresp1.ACC;vvstimresp1.CRESP;vvstimresp1.DEVICE;vvstimresp1.DurationError;vvstimresp1.OnsetDelay;vvstimresp1.OnsetTime;vvstimresp1.OnsetToOnsetTime;vvstimresp1.RESP;vvstimresp1.RT;vvstimresp1.RTTime;vvstimresp2.ACC;vvstimresp2.CRESP;vvstimresp2.DEVICE;vvstimresp2.DurationError;vvstimresp2.OnsetDelay;vvstimresp2.OnsetTime;vvstimresp2.OnsetToOnsetTime;vvstimresp2.RESP;vvstimresp2.RT;vvstimresp2.RTTime;SubTrial;LISTVVRANDOM1;LISTVVRANDOM1.Cycle;LISTVVRANDOM1.Sample;LISTVVRANDOM2;Procedure[SubTrial];Running[SubTrial];VVR;VVRANDOM;VVRANDOMRESP.ACC;VVRANDOMRESP.CRESP;VVRANDOMRESP.DEVICE;VVRANDOMRESP.DurationError;VVRANDOMRESP.OnsetDelay;VVRANDOMRESP.OnsetTime;VVRANDOMRESP.OnsetToOnsetTime;VVRANDOMRESP.RESP;VVRANDOMRESP.RT;VVRANDOMRESP.RTTime
EXP2.2_290421;1014;1;Chronos;<ChronosDeviceInfo><FriendlyName>MyChronos</FriendlyName><DeviceIndex>1</DeviceIndex><SerialNumber>CHR-04301-1186</SerialNumber><EBNVersion>3.0.3.80</EBNVersion><FirmwareVersion>1.33</FirmwareVersion><APIVersion>1.33</APIVersion><USBHostControllerVersion>2.0</USBHostControllerVersion><USBConnectionRoute>USB#ROOT_HUB20#4&9bd2e8a&0#{f18a0e88-c30c-11d0-8815-00a0c906bed8} + USB#VID_8087&PID_0024#5&3026c139&0&1#{f18a0e88-c30c-11d0-8815-00a0c906bed8}(1) + VID_2266&PID_0007(7)</USBConnectionRoute></ChronosDeviceInfo>;"<?xml version=""1.0""?>\n<Clock xmlns:dt=""urn:schemas-microsoft-com:datatypes""><Description dt:dt=""string"">E-Prime Primary Realtime Clock</Description><StartTime><Timestamp dt:dt=""int"">0</Timestamp><DateUtc dt:dt=""string"">2021-05-04T08:46:23Z</DateUtc></StartTime><FrequencyChanges><FrequencyChange><Frequency dt:dt=""r8"">2435576</Frequency><Timestamp dt:dt=""r8"">21416126515</Timestamp><Current dt:dt=""r8"">0</Current><DateUtc dt:dt=""string"">2021-05-04T08:46:23Z</DateUtc></FrequencyChange></FrequencyChanges></Clock>\n";EXP2.2_290421-1014-1;60.024;1.0.0.366;1;Chronos;-58291358;Full;3.0.3.80;3.0.3.80;05/04/2021;04/05/2021 08:46;10:46:23;3.0.3.82;1;Chronos;Chronos;1;1;1;Training;Generalbloc;;;Chronos;pretest;;1;;;;;;;TRAININGVV;SpatialTaskTraining;1;1;1;Chronos;;;;;;;;;;;;;;;;;;;;;;;;;;;;;;1;1;1;1;1;blocVVstimTraining;LISTVVRANDOM1;VV_290421/875.png;VV_290421/880.png;0;;Chronos;-999999;0;1234259;0;1;715;1234974
EXP2.2_290421;1014;1;Chronos;<ChronosDeviceInfo><FriendlyName>MyChronos</FriendlyName><DeviceIndex>1</DeviceIndex><SerialNumber>CHR-04301-1186</SerialNumber><EBNVersion>3.0.3.80</EBNVersion><FirmwareVersion>1.33</FirmwareVersion><APIVersion>1.33</APIVersion><USBHostControllerVersion>2.0</USBHostControllerVersion><USBConnectionRoute>USB#ROOT_HUB20#4&9bd2e8a&0#{f18a0e88-c30c-11d0-8815-00a0c906bed8} + USB#VID_8087&PID_0024#5&3026c139&0&1#{f18a0e88-c30c-11d0-8815-00a0c906bed8}(1) + VID_2266&PID_0007(7)</USBConnectionRoute></ChronosDeviceInfo>;"<?xml version=""1.0""?>\n<Clock xmlns:dt=""urn:schemas-microsoft-com:datatypes""><Description dt:dt=""string"">E-Prime Primary Realtime Clock</Description><StartTime><Timestamp dt:dt=""int"">0</Timestamp><DateUtc dt:dt=""string"">2021-05-04T08:46:23Z</DateUtc></StartTime><FrequencyChanges><FrequencyChange><Frequency dt:dt=""r8"">2435576</Frequency><Timestamp dt:dt=""r8"">21416126515</Timestamp><Current dt:dt=""r8"">0</Current><DateUtc dt:dt=""string"">2021-05-04T08:46:23Z</DateUtc></FrequencyChange></FrequencyChanges></Clock>\n";EXP2.2_290421-1014-1;60.024;1.0.0.366;1;Chronos;-58291358;Full;3.0.3.80;3.0.3.80;05/04/2021;04/05/2021 08:46;10:46:23;3.0.3.82;1;Chronos;Chronos;1;1;1;Training;Generalbloc;;;Chronos;pretest;;1;;;;;;;TRAININGVV;SpatialTaskTraining;1;1;1;Chronos;;;;;;;;;;;;;;;;;;;;;;;;;;;;;;2;1;1;2;3;blocVVstimTraining;LISTVVRANDOM1;VV_290421/885.png;VV_290421/890.png;0;;Chronos;-999999;0;1236991;0;1;1322;1238313
EXP2.2_290421;1014;1;Chronos;<ChronosDeviceInfo><FriendlyName>MyChronos</FriendlyName><DeviceIndex>1</DeviceIndex><SerialNumber>CHR-04301-1186</SerialNumber><EBNVersion>3.0.3.80</EBNVersion><FirmwareVersion>1.33</FirmwareVersion><APIVersion>1.33</APIVersion><USBHostControllerVersion>2.0</USBHostControllerVersion><USBConnectionRoute>USB#ROOT_HUB20#4&9bd2e8a&0#{f18a0e88-c30c-11d0-8815-00a0c906bed8} + USB#VID_8087&PID_0024#5&3026c139&0&1#{f18a0e88-c30c-11d0-8815-00a0c906bed8}(1) + VID_2266&PID_0007(7)</USBConnectionRoute></ChronosDeviceInfo>;"<?xml version=""1.0""?>\n<Clock xmlns:dt=""urn:schemas-microsoft-com:datatypes""><Description dt:dt=""string"">E-Prime Primary Realtime Clock</Description><StartTime><Timestamp dt:dt=""int"">0</Timestamp><DateUtc dt:dt=""string"">2021-05-04T08:46:23Z</DateUtc></StartTime><FrequencyChanges><FrequencyChange><Frequency dt:dt=""r8"">2435576</Frequency><Timestamp dt:dt=""r8"">21416126515</Timestamp><Current dt:dt=""r8"">0</Current><DateUtc dt:dt=""string"">2021-05-04T08:46:23Z</DateUtc></FrequencyChange></FrequencyChanges></Clock>\n";EXP2.2_290421-1014-1;60.024;1.0.0.366;1;Chronos;-58291358;Full;3.0.3.80;3.0.3.80;05/04/2021;04/05/2021 08:46;10:46:23;3.0.3.82;1;Chronos;Chronos;1;1;1;Training;Generalbloc;;;Chronos;pretest;;1;;;;;;;TRAININGVV;SpatialTaskTraining;1;1;1;Chronos;;;;;;;;;;;;;;;;;;;;;;;;;;;;;;3;1;1;3;5;blocVVstimTraining;LISTVVRANDOM1;VV_290421/895.png;VV_290421/900.png;0;;Chronos;-999999;0;1240340;0;5;1419;1241759
EXP2.2_290421;1014;1;Chronos;<ChronosDeviceInfo><FriendlyName>MyChronos</FriendlyName><DeviceIndex>1</DeviceIndex><SerialNumber>CHR-04301-1186</SerialNumber><EBNVersion>3.0.3.80</EBNVersion><FirmwareVersion>1.33</FirmwareVersion><APIVersion>1.33</APIVersion><USBHostControllerVersion>2.0</USBHostControllerVersion><USBConnectionRoute>USB#ROOT_HUB20#4&9bd2e8a&0#{f18a0e88-c30c-11d0-8815-00a0c906bed8} + USB#VID_8087&PID_0024#5&3026c139&0&1#{f18a0e88-c30c-11d0-8815-00a0c906bed8}(1) + VID_2266&PID_0007(7)</USBConnectionRoute></ChronosDeviceInfo>;"<?xml version=""1.0""?>\n<Clock xmlns:dt=""urn:schemas-microsoft-com:datatypes""><Description dt:dt=""string"">E-Prime Primary Realtime Clock</Description><StartTime><Timestamp dt:dt=""int"">0</Timestamp><DateUtc dt:dt=""string"">2021-05-04T08:46:23Z</DateUtc></StartTime><FrequencyChanges><FrequencyChange><Frequency dt:dt=""r8"">2435576</Frequency><Timestamp dt:dt=""r8"">21416126515</Timestamp><Current dt:dt=""r8"">0</Current><DateUtc dt:dt=""string"">2021-05-04T08:46:23Z</DateUtc></FrequencyChange></FrequencyChanges></Clock>\n";EXP2.2_290421-1014-1;60.024;1.0.0.366;1;Chronos;-58291358;Full;3.0.3.80;3.0.3.80;05/04/2021;04/05/2021 08:46;10:46:23;3.0.3.82;1;Chronos;Chronos;1;1;1;Training;Generalbloc;;;Chronos;pretest;;1;;;;;;;TRAININGVV;SpatialTaskTraining;1;1;1;Chronos;;;;;;;;;;;;;;;;;;;;;;;;;;;;;;4;1;1;4;7;blocVVstimTraining;LISTVVRANDOM1;VV_290421/905.png;VV_290421/910.png;0;;Chronos;-999999;0;1243772;0;5;1177;1244949
EXP2.2_290421;1014;1;Chronos;<ChronosDeviceInfo><FriendlyName>MyChronos</FriendlyName><DeviceIndex>1</DeviceIndex><SerialNumber>CHR-04301-1186</SerialNumber><EBNVersion>3.0.3.80</EBNVersion><FirmwareVersion>1.33</FirmwareVersion><APIVersion>1.33</APIVersion><USBHostControllerVersion>2.0</USBHostControllerVersion><USBConnectionRoute>USB#ROOT_HUB20#4&9bd2e8a&0#{f18a0e88-c30c-11d0-8815-00a0c906bed8} + USB#VID_8087&PID_0024#5&3026c139&0&1#{f18a0e88-c30c-11d0-8815-00a0c906bed8}(1) + VID_2266&PID_0007(7)</USBConnectionRoute></ChronosDeviceInfo>;"<?xml version=""1.0""?>\n<Clock xmlns:dt=""urn:schemas-microsoft-com:datatypes""><Description dt:dt=""string"">E-Prime Primary Realtime Clock</Description><StartTime><Timestamp dt:dt=""int"">0</Timestamp><DateUtc dt:dt=""string"">2021-05-04T08:46:23Z</DateUtc></StartTime><FrequencyChanges><FrequencyChange><Frequency dt:dt=""r8"">2435576</Frequency><Timestamp dt:dt=""r8"">21416126515</Timestamp><Current dt:dt=""r8"">0</Current><DateUtc dt:dt=""string"">2021-05-04T08:46:23Z</DateUtc></FrequencyChange></FrequencyChanges></Clock>\n";EXP2.2_290421-1014-1;60.024;1.0.0.366;1;Chronos;-58291358;Full;3.0.3.80;3.0.3.80;05/04/2021;04/05/2021 08:46;10:46:23;3.0.3.82;1;Chronos;Chronos;1;1;1;Training;Generalbloc;;;Chronos;pretest;;1;;;;;;;TRAININGVV;SpatialTaskTraining;1;1;1;Chronos;;;;;;;;;;;;;;;;;;;;;;;;;;;;;;5;1;1;5;9;blocVVstimTraining;LISTVVRANDOM1;VV_290421/915.png;VV_290421/920.png;0;;Chronos;-999999;0;1246971;0;5;934;1247905
EXP2.2_290421;1014;1;Chronos;<ChronosDeviceInfo><FriendlyName>MyChronos</FriendlyName><DeviceIndex>1</DeviceIndex><SerialNumber>CHR-04301-1186</SerialNumber><EBNVersion>3.0.3.80</EBNVersion><FirmwareVersion>1.33</FirmwareVersion><APIVersion>1.33</APIVersion><USBHostControllerVersion>2.0</USBHostControllerVersion><USBConnectionRoute>USB#ROOT_HUB20#4&9bd2e8a&0#{f18a0e88-c30c-11d0-8815-00a0c906bed8} + USB#VID_8087&PID_0024#5&3026c139&0&1#{f18a0e88-c30c-11d0-8815-00a0c906bed8}(1) + VID_2266&PID_0007(7)</USBConnectionRoute></ChronosDeviceInfo>;"<?xml version=""1.0""?>\n<Clock xmlns:dt=""urn:schemas-microsoft-com:datatypes""><Description dt:dt=""string"">E-Prime Primary Realtime Clock</Description><StartTime><Timestamp dt:dt=""int"">0</Timestamp><DateUtc dt:dt=""string"">2021-05-04T08:46:23Z</DateUtc></StartTime><FrequencyChanges><FrequencyChange><Frequency dt:dt=""r8"">2435576</Frequency><Timestamp dt:dt=""r8"">21416126515</Timestamp><Current dt:dt=""r8"">0</Current><DateUtc dt:dt=""string"">2021-05-04T08:46:23Z</DateUtc></FrequencyChange></FrequencyChanges></Clock>\n";EXP2.2_290421-1014-1;60.024;1.0.0.366;1;Chronos;-58291358;Full;3.0.3.80;3.0.3.80;05/04/2021;04/05/2021 08:46;10:46:23;3.0.3.82;1;Chronos;Chronos;1;1;1;Training;Generalbloc;;;Chronos;pretest;;1;;;;;;;TRAININGVV;SpatialTaskTraining;1;1;1;Chronos;;;;;;;;;;;;;;;;;;;;;;;;;;;;;;6;1;1;6;11;blocVVstimTraining;LISTVVRANDOM1;VV_290421/925.png;VV_290421/875.png;0;;Chronos;-999999;-1;1249919;0;1;396;1250315
EXP2.2_290421;1014;1;Chronos;<ChronosDeviceInfo><FriendlyName>MyChronos</FriendlyName><DeviceIndex>1</DeviceIndex><SerialNumber>CHR-04301-1186</SerialNumber><EBNVersion>3.0.3.80</EBNVersion><FirmwareVersion>1.33</FirmwareVersion><APIVersion>1.33</APIVersion><USBHostControllerVersion>2.0</USBHostControllerVersion><USBConnectionRoute>USB#ROOT_HUB20#4&9bd2e8a&0#{f18a0e88-c30c-11d0-8815-00a0c906bed8} + USB#VID_8087&PID_0024#5&3026c139&0&1#{f18a0e88-c30c-11d0-8815-00a0c906bed8}(1) + VID_2266&PID_0007(7)</USBConnectionRoute></ChronosDeviceInfo>;"<?xml version=""1.0""?>\n<Clock xmlns:dt=""urn:schemas-microsoft-com:datatypes""><Description dt:dt=""string"">E-Prime Primary Realtime Clock</Description><StartTime><Timestamp dt:dt=""int"">0</Timestamp><DateUtc dt:dt=""string"">2021-05-04T08:46:23Z</DateUtc></StartTime><FrequencyChanges><FrequencyChange><Frequency dt:dt=""r8"">2435576</Frequency><Timestamp dt:dt=""r8"">21416126515</Timestamp><Current dt:dt=""r8"">0</Current><DateUtc dt:dt=""string"">2021-05-04T08:46:23Z</DateUtc></FrequencyChange></FrequencyChanges></Clock>\n";EXP2.2_290421-1014-1;60.024;1.0.0.366;1;Chronos;-58291358;Full;3.0.3.80;3.0.3.80;05/04/2021;04/05/2021 08:46;10:46:23;3.0.3.82;1;Chronos;Chronos;1;1;1;Training;Generalbloc;;;Chronos;pretest;;1;;;;;;;TRAININGVV;SpatialTaskTraining;1;1;1;Chronos;;;;;;;;;;;;;;;;;;;;;;;;;;;;;;7;1;1;7;2;blocVVstimTraining;LISTVVRANDOM1;VV_290421/880.png;VV_290421/885.png;0;;Chronos;-999999;0;1252335;0;1;462;1252797
EXP2.2_290421;1014;1;Chronos;<ChronosDeviceInfo><FriendlyName>MyChronos</FriendlyName><DeviceIndex>1</DeviceIndex><SerialNumber>CHR-04301-1186</SerialNumber><EBNVersion>3.0.3.80</EBNVersion><FirmwareVersion>1.33</FirmwareVersion><APIVersion>1.33</APIVersion><USBHostControllerVersion>2.0</USBHostControllerVersion><USBConnectionRoute>USB#ROOT_HUB20#4&9bd2e8a&0#{f18a0e88-c30c-11d0-8815-00a0c906bed8} + USB#VID_8087&PID_0024#5&3026c139&0&1#{f18a0e88-c30c-11d0-8815-00a0c906bed8}(1) + VID_2266&PID_0007(7)</USBConnectionRoute></ChronosDeviceInfo>;"<?xml version=""1.0""?>\n<Clock xmlns:dt=""urn:schemas-microsoft-com:datatypes""><Description dt:dt=""string"">E-Prime Primary Realtime Clock</Description><StartTime><Timestamp dt:dt=""int"">0</Timestamp><DateUtc dt:dt=""string"">2021-05-04T08:46:23Z</DateUtc></StartTime><FrequencyChanges><FrequencyChange><Frequency dt:dt=""r8"">2435576</Frequency><Timestamp dt:dt=""r8"">21416126515</Timestamp><Current dt:dt=""r8"">0</Current><DateUtc dt:dt=""string"">2021-05-04T08:46:23Z</DateUtc></FrequencyChange></FrequencyChanges></Clock>\n";EXP2.2_290421-1014-1;60.024;1.0.0.366;1;Chronos;-58291358;Full;3.0.3.80;3.0.3.80;05/04/2021;04/05/2021 08:46;10:46:23;3.0.3.82;1;Chronos;Chronos;1;1;1;Training;Generalbloc;;;Chronos;pretest;;1;;;;;;;TRAININGVV;SpatialTaskTraining;1;1;1;Chronos;;;;;;;;;;;;;;;;;;;;;;;;;;;;;;8;1;1;8;4;blocVVstimTraining;LISTVVRANDOM1;VV_290421/890.png;VV_290421/895.png;0;;Chronos;-999999;0;1254818;0;1;647;1255465
EXP2.2_290421;1014;1;Chronos;<ChronosDeviceInfo><FriendlyName>MyChronos</FriendlyName><DeviceIndex>1</DeviceIndex><SerialNumber>CHR-04301-1186</SerialNumber><EBNVersion>3.0.3.80</EBNVersion><FirmwareVersion>1.33</FirmwareVersion><APIVersion>1.33</APIVersion><USBHostControllerVersion>2.0</USBHostControllerVersion><USBConnectionRoute>USB#ROOT_HUB20#4&9bd2e8a&0#{f18a0e88-c30c-11d0-8815-00a0c906bed8} + USB#VID_8087&PID_0024#5&3026c139&0&1#{f18a0e88-c30c-11d0-8815-00a0c906bed8}(1) + VID_2266&PID_0007(7)</USBConnectionRoute></ChronosDeviceInfo>;"<?xml version=""1.0""?>\n<Clock xmlns:dt=""urn:schemas-microsoft-com:datatypes""><Description dt:dt=""string"">E-Prime Primary Realtime Clock</Description><StartTime><Timestamp dt:dt=""int"">0</Timestamp><DateUtc dt:dt=""string"">2021-05-04T08:46:23Z</DateUtc></StartTime><FrequencyChanges><FrequencyChange><Frequency dt:dt=""r8"">2435576</Frequency><Timestamp dt:dt=""r8"">21416126515</Timestamp><Current dt:dt=""r8"">0</Current><DateUtc dt:dt=""string"">2021-05-04T08:46:23Z</DateUtc></FrequencyChange></FrequencyChanges></Clock>\n";EXP2.2_290421-1014-1;60.024;1.0.0.366;1;Chronos;-58291358;Full;3.0.3.80;3.0.3.80;05/04/2021;04/05/2021 08:46;10:46:23;3.0.3.82;1;Chronos;Chronos;1;1;1;Training;Generalbloc;;;Chronos;pretest;;1;;;;;;;TRAININGVV;SpatialTaskTraining;1;1;1;Chronos;;;;;;;;;;;;;;;;;;;;;;;;;;;;;;9;1;1;9;6;blocVVstimTraining;LISTVVRANDOM1;VV_290421/900.png;VV_290421/905.png;0;;Chronos;-999999;-1;1257483;0;1;925;1258408
EXP2.2_290421;1014;1;Chronos;<ChronosDeviceInfo><FriendlyName>MyChronos</FriendlyName><DeviceIndex>1</DeviceIndex><SerialNumber>CHR-04301-1186</SerialNumber><EBNVersion>3.0.3.80</EBNVersion><FirmwareVersion>1.33</FirmwareVersion><APIVersion>1.33</APIVersion><USBHostControllerVersion>2.0</USBHostControllerVersion><USBConnectionRoute>USB#ROOT_HUB20#4&9bd2e8a&0#{f18a0e88-c30c-11d0-8815-00a0c906bed8} + USB#VID_8087&PID_0024#5&3026c139&0&1#{f18a0e88-c30c-11d0-8815-00a0c906bed8}(1) + VID_2266&PID_0007(7)</USBConnectionRoute></ChronosDeviceInfo>;"<?xml version=""1.0""?>\n<Clock xmlns:dt=""urn:schemas-microsoft-com:datatypes""><Description dt:dt=""string"">E-Prime Primary Realtime Clock</Description><StartTime><Timestamp dt:dt=""int"">0</Timestamp><DateUtc dt:dt=""string"">2021-05-04T08:46:23Z</DateUtc></StartTime><FrequencyChanges><FrequencyChange><Frequency dt:dt=""r8"">2435576</Frequency><Timestamp dt:dt=""r8"">21416126515</Timestamp><Current dt:dt=""r8"">0</Current><DateUtc dt:dt=""string"">2021-05-04T08:46:23Z</DateUtc></FrequencyChange></FrequencyChanges></Clock>\n";EXP2.2_290421-1014-1;60.024;1.0.0.366;1;Chronos;-58291358;Full;3.0.3.80;3.0.3.80;05/04/2021;04/05/2021 08:46;10:46:23;3.0.3.82;1;Chronos;Chronos;1;1;1;Training;Generalbloc;;;Chronos;pretest;;1;;;;;;;TRAININGVV;SpatialTaskTraining;1;1;1;Chronos;;;;;;;;;;;;;;;;;;;;;;;;;;;;;;10;1;1;10;8;blocVVstimTraining;LISTVVRANDOM1;VV_290421/910.png;VV_290421/915.png;0;;Chronos;-999999;0;1260432;0;1;1014;1261446
EXP2.2_290421;1014;1;Chronos;<ChronosDeviceInfo><FriendlyName>MyChronos</FriendlyName><DeviceIndex>1</DeviceIndex><SerialNumber>CHR-04301-1186</SerialNumber><EBNVersion>3.0.3.80</EBNVersion><FirmwareVersion>1.33</FirmwareVersion><APIVersion>1.33</APIVersion><USBHostControllerVersion>2.0</USBHostControllerVersion><USBConnectionRoute>USB#ROOT_HUB20#4&9bd2e8a&0#{f18a0e88-c30c-11d0-8815-00a0c906bed8} + USB#VID_8087&PID_0024#5&3026c139&0&1#{f18a0e88-c30c-11d0-8815-00a0c906bed8}(1) + VID_2266&PID_0007(7)</USBConnectionRoute></ChronosDeviceInfo>;"<?xml version=""1.0""?>\n<Clock xmlns:dt=""urn:schemas-microsoft-com:datatypes""><Description dt:dt=""string"">E-Prime Primary Realtime Clock</Description><StartTime><Timestamp dt:dt=""int"">0</Timestamp><DateUtc dt:dt=""string"">2021-05-04T08:46:23Z</DateUtc></StartTime><FrequencyChanges><FrequencyChange><Frequency dt:dt=""r8"">2435576</Frequency><Timestamp dt:dt=""r8"">21416126515</Timestamp><Current dt:dt=""r8"">0</Current><DateUtc dt:dt=""string"">2021-05-04T08:46:23Z</DateUtc></FrequencyChange></FrequencyChanges></Clock>\n";EXP2.2_290421-1014-1;60.024;1.0.0.366;1;Chronos;-58291358;Full;3.0.3.80;3.0.3.80;05/04/2021;04/05/2021 08:46;10:46:23;3.0.3.82;2;Chronos;;2;1;2;TESTVV;Generalbloc;;;;pretest;Chronos;1;5;VV_290421/905.png;7;1;1;5;blocVVstim;listVVTrial;;;;Chronos;0;;0;-1;1286822;200;;0;0;0;5;Chronos;0;0;1287022;300;1;699;1287721;0;5;Chronos;0;0;1287322;0;1;399;1287721;;;;;;;;;;;;;;;;;;;
EXP2.2_290421;1014;1;Chronos;<ChronosDeviceInfo><FriendlyName>MyChronos</FriendlyName><DeviceIndex>1</DeviceIndex><SerialNumber>CHR-04301-1186</SerialNumber><EBNVersion>3.0.3.80</EBNVersion><FirmwareVersion>1.33</FirmwareVersion><APIVersion>1.33</APIVersion><USBHostControllerVersion>2.0</USBHostControllerVersion><USBConnectionRoute>USB#ROOT_HUB20#4&9bd2e8a&0#{f18a0e88-c30c-11d0-8815-00a0c906bed8} + USB#VID_8087&PID_0024#5&3026c139&0&1#{f18a0e88-c30c-11d0-8815-00a0c906bed8}(1) + VID_2266&PID_0007(7)</USBConnectionRoute></ChronosDeviceInfo>;"<?xml version=""1.0""?>\n<Clock xmlns:dt=""urn:schemas-microsoft-com:datatypes""><Description dt:dt=""string"">E-Prime Primary Realtime Clock</Description><StartTime><Timestamp dt:dt=""int"">0</Timestamp><DateUtc dt:dt=""string"">2021-05-04T08:46:23Z</DateUtc></StartTime><FrequencyChanges><FrequencyChange><Frequency dt:dt=""r8"">2435576</Frequency><Timestamp dt:dt=""r8"">21416126515</Timestamp><Current dt:dt=""r8"">0</Current><DateUtc dt:dt=""string"">2021-05-04T08:46:23Z</DateUtc></FrequencyChange></FrequencyChanges></Clock>\n";EXP2.2_290421-1014-1;60.024;1.0.0.366;1;Chronos;-58291358;Full;3.0.3.80;3.0.3.80;05/04/2021;04/05/2021 08:46;10:46:23;3.0.3.82;2;Chronos;;2;1;2;TESTVV;Generalbloc;;;;pretest;Chronos;2;1;VV_290421/895.png;5;1;2;-5;blocVVstim;listVVTrial;;;;Chronos;0;;0;-1;1289238;200;;0;0;1;1;Chronos;0;0;1289438;300;1;680;1290118;1;1;Chronos;0;0;1289738;0;1;380;1290118;;;;;;;;;;;;;;;;;;;
EXP2.2_290421;1014;1;Chronos;<ChronosDeviceInfo><FriendlyName>MyChronos</FriendlyName><DeviceIndex>1</DeviceIndex><SerialNumber>CHR-04301-1186</SerialNumber><EBNVersion>3.0.3.80</EBNVersion><FirmwareVersion>1.33</FirmwareVersion><APIVersion>1.33</APIVersion><USBHostControllerVersion>2.0</USBHostControllerVersion><USBConnectionRoute>USB#ROOT_HUB20#4&9bd2e8a&0#{f18a0e88-c30c-11d0-8815-00a0c906bed8} + USB#VID_8087&PID_0024#5&3026c139&0&1#{f18a0e88-c30c-11d0-8815-00a0c906bed8}(1) + VID_2266&PID_0007(7)</USBConnectionRoute></ChronosDeviceInfo>;"<?xml version=""1.0""?>\n<Clock xmlns:dt=""urn:schemas-microsoft-com:datatypes""><Description dt:dt=""string"">E-Prime Primary Realtime Clock</Description><StartTime><Timestamp dt:dt=""int"">0</Timestamp><DateUtc dt:dt=""string"">2021-05-04T08:46:23Z</DateUtc></StartTime><FrequencyChanges><FrequencyChange><Frequency dt:dt=""r8"">2435576</Frequency><Timestamp dt:dt=""r8"">21416126515</Timestamp><Current dt:dt=""r8"">0</Current><DateUtc dt:dt=""string"">2021-05-04T08:46:23Z</DateUtc></FrequencyChange></FrequencyChanges></Clock>\n";EXP2.2_290421-1014-1;60.024;1.0.0.366;1;Chronos;-58291358;Full;3.0.3.80;3.0.3.80;05/04/2021;04/05/2021 08:46;10:46:23;3.0.3.82;2;Chronos;;2;1;2;TESTVV;Generalbloc;;;;pretest;Chronos;3;1;VV_290421/880.png;2;1;3;-20;blocVVstim;listVVTrial;;;;Chronos;0;;0;-1;1291637;200;;0;0;1;1;Chronos;0;0;1291837;300;1;714;1292551;1;1;Chronos;0;0;1292137;0;1;414;1292551;;;;;;;;;;;;;;;;;;;
EXP2.2_290421;1014;1;Chronos;<ChronosDeviceInfo><FriendlyName>MyChronos</FriendlyName><DeviceIndex>1</DeviceIndex><SerialNumber>CHR-04301-1186</SerialNumber><EBNVersion>3.0.3.80</EBNVersion><FirmwareVersion>1.33</FirmwareVersion><APIVersion>1.33</APIVersion><USBHostControllerVersion>2.0</USBHostControllerVersion><USBConnectionRoute>USB#ROOT_HUB20#4&9bd2e8a&0#{f18a0e88-c30c-11d0-8815-00a0c906bed8} + USB#VID_8087&PID_0024#5&3026c139&0&1#{f18a0e88-c30c-11d0-8815-00a0c906bed8}(1) + VID_2266&PID_0007(7)</USBConnectionRoute></ChronosDeviceInfo>;"<?xml version=""1.0""?>\n<Clock xmlns:dt=""urn:schemas-microsoft-com:datatypes""><Description dt:dt=""string"">E-Prime Primary Realtime Clock</Description><StartTime><Timestamp dt:dt=""int"">0</Timestamp><DateUtc dt:dt=""string"">2021-05-04T08:46:23Z</DateUtc></StartTime><FrequencyChanges><FrequencyChange><Frequency dt:dt=""r8"">2435576</Frequency><Timestamp dt:dt=""r8"">21416126515</Timestamp><Current dt:dt=""r8"">0</Current><DateUtc dt:dt=""string"">2021-05-04T08:46:23Z</DateUtc></FrequencyChange></FrequencyChanges></Clock>\n";EXP2.2_290421-1014-1;60.024;1.0.0.366;1;Chronos;-58291358;Full;3.0.3.80;3.0.3.80;05/04/2021;04/05/2021 08:46;10:46:23;3.0.3.82;2;Chronos;;2;1;2;TESTVV;Generalbloc;;;;pretest;Chronos;4;5;VV_290421/920.png;10;1;4;20;blocVVstim;listVVTrial;;;;Chronos;0;;0;0;1294070;200;;0;0;1;5;Chronos;0;0;1294270;300;5;670;1294940;1;5;Chronos;0;0;1294570;0;5;370;1294940;;;;;;;;;;;;;;;;;;;
EXP2.2_290421;1014;1;Chronos;<ChronosDeviceInfo><FriendlyName>MyChronos</FriendlyName><DeviceIndex>1</DeviceIndex><SerialNumber>CHR-04301-1186</SerialNumber><EBNVersion>3.0.3.80</EBNVersion><FirmwareVersion>1.33</FirmwareVersion><APIVersion>1.33</APIVersion><USBHostControllerVersion>2.0</USBHostControllerVersion><USBConnectionRoute>USB#ROOT_HUB20#4&9bd2e8a&0#{f18a0e88-c30c-11d0-8815-00a0c906bed8} + USB#VID_8087&PID_0024#5&3026c139&0&1#{f18a0e88-c30c-11d0-8815-00a0c906bed8}(1) + VID_2266&PID_0007(7)</USBConnectionRoute></ChronosDeviceInfo>;"<?xml version=""1.0""?>\n<Clock xmlns:dt=""urn:schemas-microsoft-com:datatypes""><Description dt:dt=""string"">E-Prime Primary Realtime Clock</Description><StartTime><Timestamp dt:dt=""int"">0</Timestamp><DateUtc dt:dt=""string"">2021-05-04T08:46:23Z</DateUtc></StartTime><FrequencyChanges><FrequencyChange><Frequency dt:dt=""r8"">2435576</Frequency><Timestamp dt:dt=""r8"">21416126515</Timestamp><Current dt:dt=""r8"">0</Current><DateUtc dt:dt=""string"">2021-05-04T08:46:23Z</DateUtc></FrequencyChange></FrequencyChanges></Clock>\n";EXP2.2_290421-1014-1;60.024;1.0.0.366;1;Chronos;-58291358;Full;3.0.3.80;3.0.3.80;05/04/2021;04/05/2021 08:46;10:46:23;3.0.3.82;2;Chronos;;2;1;2;TESTVV;Generalbloc;;;;pretest;Chronos;5;15;VV_290421/900.png;6;1;5;0;blocVVstim;listVVTrial;;;;Chronos;0;;0;-1;1296452;200;;0;0;0;15;Chronos;0;0;1296652;300;1;646;1297298;0;15;Chronos;0;0;1296952;0;1;346;1297298;;;;;;;;;;;;;;;;;;;
EXP2.2_290421;1014;1;Chronos;<ChronosDeviceInfo><FriendlyName>MyChronos</FriendlyName><DeviceIndex>1</DeviceIndex><SerialNumber>CHR-04301-1186</SerialNumber><EBNVersion>3.0.3.80</EBNVersion><FirmwareVersion>1.33</FirmwareVersion><APIVersion>1.33</APIVersion><USBHostControllerVersion>2.0</USBHostControllerVersion><USBConnectionRoute>USB#ROOT_HUB20#4&9bd2e8a&0#{f18a0e88-c30c-11d0-8815-00a0c906bed8} + USB#VID_8087&PID_0024#5&3026c139&0&1#{f18a0e88-c30c-11d0-8815-00a0c906bed8}(1) + VID_2266&PID_0007(7)</USBConnectionRoute></ChronosDeviceInfo>;"<?xml version=""1.0""?>\n<Clock xmlns:dt=""urn:schemas-microsoft-com:datatypes""><Description dt:dt=""string"">E-Prime Primary Realtime Clock</Description><StartTime><Timestamp dt:dt=""int"">0</Timestamp><DateUtc dt:dt=""string"">2021-05-04T08:46:23Z</DateUtc></StartTime><FrequencyChanges><FrequencyChange><Frequency dt:dt=""r8"">2435576</Frequency><Timestamp dt:dt=""r8"">21416126515</Timestamp><Current dt:dt=""r8"">0</Current><DateUtc dt:dt=""string"">2021-05-04T08:46:23Z</DateUtc></FrequencyChange></FrequencyChanges></Clock>\n";EXP2.2_290421-1014-1;60.024;1.0.0.366;1;Chronos;-58291358;Full;3.0.3.80;3.0.3.80;05/04/2021;04/05/2021 08:46;10:46:23;3.0.3.82;2;Chronos;;2;1;2;TESTVV;Generalbloc;;;;pretest;Chronos;6;5;VV_290421/920.png;10;1;6;20;blocVVstim;listVVTrial;;;;Chronos;0;;0;0;1298818;200;;0;0;1;5;Chronos;0;0;1299018;300;5;588;1299606;1;5;Chronos;0;0;1299318;0;5;288;1299606;;;;;;;;;;;;;;;;;;;
EXP2.2_290421;1014;1;Chronos;<ChronosDeviceInfo><FriendlyName>MyChronos</FriendlyName><DeviceIndex>1</DeviceIndex><SerialNumber>CHR-04301-1186</SerialNumber><EBNVersion>3.0.3.80</EBNVersion><FirmwareVersion>1.33</FirmwareVersion><APIVersion>1.33</APIVersion><USBHostControllerVersion>2.0</USBHostControllerVersion><USBConnectionRoute>USB#ROOT_HUB20#4&9bd2e8a&0#{f18a0e88-c30c-11d0-8815-00a0c906bed8} + USB#VID_8087&PID_0024#5&3026c139&0&1#{f18a0e88-c30c-11d0-8815-00a0c906bed8}(1) + VID_2266&PID_0007(7)</USBConnectionRoute></ChronosDeviceInfo>;"<?xml version=""1.0""?>\n<Clock xmlns:dt=""urn:schemas-microsoft-com:datatypes""><Description dt:dt=""string"">E-Prime Primary Realtime Clock</Description><StartTime><Timestamp dt:dt=""int"">0</Timestamp><DateUtc dt:dt=""string"">2021-05-04T08:46:23Z</DateUtc></StartTime><FrequencyChanges><FrequencyChange><Frequency dt:dt=""r8"">2435576</Frequency><Timestamp dt:dt=""r8"">21416126515</Timestamp><Current dt:dt=""r8"">0</Current><DateUtc dt:dt=""string"">2021-05-04T08:46:23Z</DateUtc></FrequencyChange></FrequencyChanges></Clock>\n";EXP2.2_290421-1014-1;60.024;1.0.0.366;1;Chronos;-58291358;Full;3.0.3.80;3.0.3.80;05/04/2021;04/05/2021 08:46;10:46:23;3.0.3.82;2;Chronos;;2;1;2;TESTVV;Generalbloc;;;;pretest;Chronos;7;5;VV_290421/915.png;9;1;7;15;blocVVstim;listVVTrial;;;;Chronos;0;;0;-1;1301117;200;;0;0;1;5;Chronos;0;0;1301317;300;5;883;1302200;1;5;Chronos;0;0;1301617;0;5;583;1302200;;;;;;;;;;;;;;;;;;;
EXP2.2_290421;1014;1;Chronos;<ChronosDeviceInfo><FriendlyName>MyChronos</FriendlyName><DeviceIndex>1</DeviceIndex><SerialNumber>CHR-04301-1186</SerialNumber><EBNVersion>3.0.3.80</EBNVersion><FirmwareVersion>1.33</FirmwareVersion><APIVersion>1.33</APIVersion><USBHostControllerVersion>2.0</USBHostControllerVersion><USBConnectionRoute>USB#ROOT_HUB20#4&9bd2e8a&0#{f18a0e88-c30c-11d0-8815-00a0c906bed8} + USB#VID_8087&PID_0024#5&3026c139&0&1#{f18a0e88-c30c-11d0-8815-00a0c906bed8}(1) + VID_2266&PID_0007(7)</USBConnectionRoute></ChronosDeviceInfo>;"<?xml version=""1.0""?>\n<Clock xmlns:dt=""urn:schemas-microsoft-com:datatypes""><Description dt:dt=""string"">E-Prime Primary Realtime Clock</Description><StartTime><Timestamp dt:dt=""int"">0</Timestamp><DateUtc dt:dt=""string"">2021-05-04T08:46:23Z</DateUtc></StartTime><FrequencyChanges><FrequencyChange><Frequency dt:dt=""r8"">2435576</Frequency><Timestamp dt:dt=""r8"">21416126515</Timestamp><Current dt:dt=""r8"">0</Current><DateUtc dt:dt=""string"">2021-05-04T08:46:23Z</DateUtc></FrequencyChange></FrequencyChanges></Clock>\n";EXP2.2_290421-1014-1;60.024;1.0.0.366;1;Chronos;-58291358;Full;3.0.3.80;3.0.3.80;05/04/2021;04/05/2021 08:46;10:46:23;3.0.3.82;2;Chronos;;2;1;2;TESTVV;Generalbloc;;;;pretest;Chronos;8;1;VV_290421/895.png;5;1;8;-5;blocVVstim;listVVTrial;;;;Chronos;0;;0;-1;1303716;200;;0;0;1;1;Chronos;0;0;1303916;300;1;685;1304601;1;1;Chronos;0;0;1304216;0;1;385;1304601;;;;;;;;;;;;;;;;;;;
EXP2.2_290421;1014;1;Chronos;<ChronosDeviceInfo><FriendlyName>MyChronos</FriendlyName><DeviceIndex>1</DeviceIndex><SerialNumber>CHR-04301-1186</SerialNumber><EBNVersion>3.0.3.80</EBNVersion><FirmwareVersion>1.33</FirmwareVersion><APIVersion>1.33</APIVersion><USBHostControllerVersion>2.0</USBHostControllerVersion><USBConnectionRoute>USB#ROOT_HUB20#4&9bd2e8a&0#{f18a0e88-c30c-11d0-8815-00a0c906bed8} + USB#VID_8087&PID_0024#5&3026c139&0&1#{f18a0e88-c30c-11d0-8815-00a0c906bed8}(1) + VID_2266&PID_0007(7)</USBConnectionRoute></ChronosDeviceInfo>;"<?xml version=""1.0""?>\n<Clock xmlns:dt=""urn:schemas-microsoft-com:datatypes""><Description dt:dt=""string"">E-Prime Primary Realtime Clock</Description><StartTime><Timestamp dt:dt=""int"">0</Timestamp><DateUtc dt:dt=""string"">2021-05-04T08:46:23Z</DateUtc></StartTime><FrequencyChanges><FrequencyChange><Frequency dt:dt=""r8"">2435576</Frequency><Timestamp dt:dt=""r8"">21416126515</Timestamp><Current dt:dt=""r8"">0</Current><DateUtc dt:dt=""string"">2021-05-04T08:46:23Z</DateUtc></FrequencyChange></FrequencyChanges></Clock>\n";EXP2.2_290421-1014-1;60.024;1.0.0.366;1;Chronos;-58291358;Full;3.0.3.80;3.0.3.80;05/04/2021;04/05/2021 08:46;10:46:23;3.0.3.82;2;Chronos;;2;1;2;TESTVV;Generalbloc;;;;pretest;Chronos;9;5;VV_290421/910.png;8;1;9;10;blocVVstim;listVVTrial;;;;Chronos;0;;0;-1;1306115;200;;0;0;0;5;Chronos;0;0;1306315;300;1;849;1307164;0;5;Chronos;0;0;1306615;0;1;549;1307164;;;;;;;;;;;;;;;;;;;
EXP2.2_290421;1014;1;Chronos;<ChronosDeviceInfo><FriendlyName>MyChronos</FriendlyName><DeviceIndex>1</DeviceIndex><SerialNumber>CHR-04301-1186</SerialNumber><EBNVersion>3.0.3.80</EBNVersion><FirmwareVersion>1.33</FirmwareVersion><APIVersion>1.33</APIVersion><USBHostControllerVersion>2.0</USBHostControllerVersion><USBConnectionRoute>USB#ROOT_HUB20#4&9bd2e8a&0#{f18a0e88-c30c-11d0-8815-00a0c906bed8} + USB#VID_8087&PID_0024#5&3026c139&0&1#{f18a0e88-c30c-11d0-8815-00a0c906bed8}(1) + VID_2266&PID_0007(7)</USBConnectionRoute></ChronosDeviceInfo>;"<?xml version=""1.0""?>\n<Clock xmlns:dt=""urn:schemas-microsoft-com:datatypes""><Description dt:dt=""string"">E-Prime Primary Realtime Clock</Description><StartTime><Timestamp dt:dt=""int"">0</Timestamp><DateUtc dt:dt=""string"">2021-05-04T08:46:23Z</DateUtc></StartTime><FrequencyChanges><FrequencyChange><Frequency dt:dt=""r8"">2435576</Frequency><Timestamp dt:dt=""r8"">21416126515</Timestamp><Current dt:dt=""r8"">0</Current><DateUtc dt:dt=""string"">2021-05-04T08:46:23Z</DateUtc></FrequencyChange></FrequencyChanges></Clock>\n";EXP2.2_290421-1014-1;60.024;1.0.0.366;1;Chronos;-58291358;Full;3.0.3.80;3.0.3.80;05/04/2021;04/05/2021 08:46;10:46:23;3.0.3.82;2;Chronos;;2;1;2;TESTVV;Generalbloc;;;;pretest;Chronos;10;1;VV_290421/880.png;2;1;10;-20;blocVVstim;listVVTrial;;;;Chronos;0;;0;0;1308681;200;;0;0;1;1;Chronos;0;0;1308881;300;1;776;1309657;1;1;Chronos;0;0;1309181;0;1;476;1309657;;;;;;;;;;;;;;;;;;;
EXP2.2_290421;1014;1;Chronos;<ChronosDeviceInfo><FriendlyName>MyChronos</FriendlyName><DeviceIndex>1</DeviceIndex><SerialNumber>CHR-04301-1186</SerialNumber><EBNVersion>3.0.3.80</EBNVersion><FirmwareVersion>1.33</FirmwareVersion><APIVersion>1.33</APIVersion><USBHostControllerVersion>2.0</USBHostControllerVersion><USBConnectionRoute>USB#ROOT_HUB20#4&9bd2e8a&0#{f18a0e88-c30c-11d0-8815-00a0c906bed8} + USB#VID_8087&PID_0024#5&3026c139&0&1#{f18a0e88-c30c-11d0-8815-00a0c906bed8}(1) + VID_2266&PID_0007(7)</USBConnectionRoute></ChronosDeviceInfo>;"<?xml version=""1.0""?>\n<Clock xmlns:dt=""urn:schemas-microsoft-com:datatypes""><Description dt:dt=""string"">E-Prime Primary Realtime Clock</Description><StartTime><Timestamp dt:dt=""int"">0</Timestamp><DateUtc dt:dt=""string"">2021-05-04T08:46:23Z</DateUtc></StartTime><FrequencyChanges><FrequencyChange><Frequency dt:dt=""r8"">2435576</Frequency><Timestamp dt:dt=""r8"">21416126515</Timestamp><Current dt:dt=""r8"">0</Current><DateUtc dt:dt=""string"">2021-05-04T08:46:23Z</DateUtc></FrequencyChange></FrequencyChanges></Clock>\n";EXP2.2_290421-1014-1;60.024;1.0.0.366;1;Chronos;-58291358;Full;3.0.3.80;3.0.3.80;05/04/2021;04/05/2021 08:46;10:46:23;3.0.3.82;2;Chronos;;2;1;2;TESTVV;Generalbloc;;;;pretest;Chronos;11;1;VV_290421/895.png;5;1;11;-5;blocVVstim;listVVTrial;;;;Chronos;0;;0;0;1311180;200;;0;0;1;1;Chronos;0;0;1311380;300;1;639;1312019;1;1;Chronos;0;0;1311680;0;1;339;1312019;;;;;;;;;;;;;;;;;;;
EXP2.2_290421;1014;1;Chronos;<ChronosDeviceInfo><FriendlyName>MyChronos</FriendlyName><DeviceIndex>1</DeviceIndex><SerialNumber>CHR-04301-1186</SerialNumber><EBNVersion>3.0.3.80</EBNVersion><FirmwareVersion>1.33</FirmwareVersion><APIVersion>1.33</APIVersion><USBHostControllerVersion>2.0</USBHostControllerVersion><USBConnectionRoute>USB#ROOT_HUB20#4&9bd2e8a&0#{f18a0e88-c30c-11d0-8815-00a0c906bed8} + USB#VID_8087&PID_0024#5&3026c139&0&1#{f18a0e88-c30c-11d0-8815-00a0c906bed8}(1) + VID_2266&PID_0007(7)</USBConnectionRoute></ChronosDeviceInfo>;"<?xml version=""1.0""?>\n<Clock xmlns:dt=""urn:schemas-microsoft-com:datatypes""><Description dt:dt=""string"">E-Prime Primary Realtime Clock</Description><StartTime><Timestamp dt:dt=""int"">0</Timestamp><DateUtc dt:dt=""string"">2021-05-04T08:46:23Z</DateUtc></StartTime><FrequencyChanges><FrequencyChange><Frequency dt:dt=""r8"">2435576</Frequency><Timestamp dt:dt=""r8"">21416126515</Timestamp><Current dt:dt=""r8"">0</Current><DateUtc dt:dt=""string"">2021-05-04T08:46:23Z</DateUtc></FrequencyChange></FrequencyChanges></Clock>\n";EXP2.2_290421-1014-1;60.024;1.0.0.366;1;Chronos;-58291358;Full;3.0.3.80;3.0.3.80;05/04/2021;04/05/2021 08:46;10:46:23;3.0.3.82;2;Chronos;;2;1;2;TESTVV;Generalbloc;;;;pretest;Chronos;12;5;VV_290421/915.png;9;1;12;15;blocVVstim;listVVTrial;;;;Chronos;0;;0;0;1313546;200;;0;0;1;5;Chronos;0;0;1313746;299;5;732;1314478;1;5;Chronos;1;-1;1314045;0;5;433;1314478;;;;;;;;;;;;;;;;;;;
EXP2.2_290421;1014;1;Chronos;<ChronosDeviceInfo><FriendlyName>MyChronos</FriendlyName><DeviceIndex>1</DeviceIndex><SerialNumber>CHR-04301-1186</SerialNumber><EBNVersion>3.0.3.80</EBNVersion><FirmwareVersion>1.33</FirmwareVersion><APIVersion>1.33</APIVersion><USBHostControllerVersion>2.0</USBHostControllerVersion><USBConnectionRoute>USB#ROOT_HUB20#4&9bd2e8a&0#{f18a0e88-c30c-11d0-8815-00a0c906bed8} + USB#VID_8087&PID_0024#5&3026c139&0&1#{f18a0e88-c30c-11d0-8815-00a0c906bed8}(1) + VID_2266&PID_0007(7)</USBConnectionRoute></ChronosDeviceInfo>;"<?xml version=""1.0""?>\n<Clock xmlns:dt=""urn:schemas-microsoft-com:datatypes""><Description dt:dt=""string"">E-Prime Primary Realtime Clock</Description><StartTime><Timestamp dt:dt=""int"">0</Timestamp><DateUtc dt:dt=""string"">2021-05-04T08:46:23Z</DateUtc></StartTime><FrequencyChanges><FrequencyChange><Frequency dt:dt=""r8"">2435576</Frequency><Timestamp dt:dt=""r8"">21416126515</Timestamp><Current dt:dt=""r8"">0</Current><DateUtc dt:dt=""string"">2021-05-04T08:46:23Z</DateUtc></FrequencyChange></FrequencyChanges></Clock>\n";EXP2.2_290421-1014-1;60.024;1.0.0.366;1;Chronos;-58291358;Full;3.0.3.80;3.0.3.80;05/04/2021;04/05/2021 08:46;10:46:23;3.0.3.82;2;Chronos;;2;1;2;TESTVV;Generalbloc;;;;pretest;Chronos;13;1;VV_290421/890.png;4;1;13;-10;blocVVstim;listVVTrial;;;;Chronos;0;;0;0;1315995;200;;0;0;1;1;Chronos;0;0;1316195;300;1;603;1316798;1;1;Chronos;0;0;1316495;0;1;303;1316798;;;;;;;;;;;;;;;;;;;
EXP2.2_290421;1014;1;Chronos;<ChronosDeviceInfo><FriendlyName>MyChronos</FriendlyName><DeviceIndex>1</DeviceIndex><SerialNumber>CHR-04301-1186</SerialNumber><EBNVersion>3.0.3.80</EBNVersion><FirmwareVersion>1.33</FirmwareVersion><APIVersion>1.33</APIVersion><USBHostControllerVersion>2.0</USBHostControllerVersion><USBConnectionRoute>USB#ROOT_HUB20#4&9bd2e8a&0#{f18a0e88-c30c-11d0-8815-00a0c906bed8} + USB#VID_8087&PID_0024#5&3026c139&0&1#{f18a0e88-c30c-11d0-8815-00a0c906bed8}(1) + VID_2266&PID_0007(7)</USBConnectionRoute></ChronosDeviceInfo>;"<?xml version=""1.0""?>\n<Clock xmlns:dt=""urn:schemas-microsoft-com:datatypes""><Description dt:dt=""string"">E-Prime Primary Realtime Clock</Description><StartTime><Timestamp dt:dt=""int"">0</Timestamp><DateUtc dt:dt=""string"">2021-05-04T08:46:23Z</DateUtc></StartTime><FrequencyChanges><FrequencyChange><Frequency dt:dt=""r8"">2435576</Frequency><Timestamp dt:dt=""r8"">21416126515</Timestamp><Current dt:dt=""r8"">0</Current><DateUtc dt:dt=""string"">2021-05-04T08:46:23Z</DateUtc></FrequencyChange></FrequencyChanges></Clock>\n";EXP2.2_290421-1014-1;60.024;1.0.0.366;1;Chronos;-58291358;Full;3.0.3.80;3.0.3.80;05/04/2021;04/05/2021 08:46;10:46:23;3.0.3.82;2;Chronos;;2;1;2;TESTVV;Generalbloc;;;;pretest;Chronos;14;1;VV_290421/890.png;4;1;14;-10;blocVVstim;listVVTrial;;;;Chronos;0;;0;0;1318311;200;;0;0;1;1;Chronos;0;0;1318511;299;1;637;1319148;1;1;Chronos;1;-1;1318810;0;1;338;1319148;;;;;;;;;;;;;;;;;;;
EXP2.2_290421;1014;1;Chronos;<ChronosDeviceInfo><FriendlyName>MyChronos</FriendlyName><DeviceIndex>1</DeviceIndex><SerialNumber>CHR-04301-1186</SerialNumber><EBNVersion>3.0.3.80</EBNVersion><FirmwareVersion>1.33</FirmwareVersion><APIVersion>1.33</APIVersion><USBHostControllerVersion>2.0</USBHostControllerVersion><USBConnectionRoute>USB#ROOT_HUB20#4&9bd2e8a&0#{f18a0e88-c30c-11d0-8815-00a0c906bed8} + USB#VID_8087&PID_0024#5&3026c139&0&1#{f18a0e88-c30c-11d0-8815-00a0c906bed8}(1) + VID_2266&PID_0007(7)</USBConnectionRoute></ChronosDeviceInfo>;"<?xml version=""1.0""?>\n<Clock xmlns:dt=""urn:schemas-microsoft-com:datatypes""><Description dt:dt=""string"">E-Prime Primary Realtime Clock</Description><StartTime><Timestamp dt:dt=""int"">0</Timestamp><DateUtc dt:dt=""string"">2021-05-04T08:46:23Z</DateUtc></StartTime><FrequencyChanges><FrequencyChange><Frequency dt:dt=""r8"">2435576</Frequency><Timestamp dt:dt=""r8"">21416126515</Timestamp><Current dt:dt=""r8"">0</Current><DateUtc dt:dt=""string"">2021-05-04T08:46:23Z</DateUtc></FrequencyChange></FrequencyChanges></Clock>\n";EXP2.2_290421-1014-1;60.024;1.0.0.366;1;Chronos;-58291358;Full;3.0.3.80;3.0.3.80;05/04/2021;04/05/2021 08:46;10:46:23;3.0.3.82;2;Chronos;;2;1;2;TESTVV;Generalbloc;;;;pretest;Chronos;15;5;VV_290421/905.png;7;1;15;5;blocVVstim;listVVTrial;;;;Chronos;0;;0;-1;1320676;200;;0;0;0;5;Chronos;0;0;1320876;300;1;1386;1322262;0;5;Chronos;0;0;1321176;0;1;1086;1322262;;;;;;;;;;;;;;;;;;;
EXP2.2_290421;1014;1;Chronos;<ChronosDeviceInfo><FriendlyName>MyChronos</FriendlyName><DeviceIndex>1</DeviceIndex><SerialNumber>CHR-04301-1186</SerialNumber><EBNVersion>3.0.3.80</EBNVersion><FirmwareVersion>1.33</FirmwareVersion><APIVersion>1.33</APIVersion><USBHostControllerVersion>2.0</USBHostControllerVersion><USBConnectionRoute>USB#ROOT_HUB20#4&9bd2e8a&0#{f18a0e88-c30c-11d0-8815-00a0c906bed8} + USB#VID_8087&PID_0024#5&3026c139&0&1#{f18a0e88-c30c-11d0-8815-00a0c906bed8}(1) + VID_2266&PID_0007(7)</USBConnectionRoute></ChronosDeviceInfo>;"<?xml version=""1.0""?>\n<Clock xmlns:dt=""urn:schemas-microsoft-com:datatypes""><Description dt:dt=""string"">E-Prime Primary Realtime Clock</Description><StartTime><Timestamp dt:dt=""int"">0</Timestamp><DateUtc dt:dt=""string"">2021-05-04T08:46:23Z</DateUtc></StartTime><FrequencyChanges><FrequencyChange><Frequency dt:dt=""r8"">2435576</Frequency><Timestamp dt:dt=""r8"">21416126515</Timestamp><Current dt:dt=""r8"">0</Current><DateUtc dt:dt=""string"">2021-05-04T08:46:23Z</DateUtc></FrequencyChange></FrequencyChanges></Clock>\n";EXP2.2_290421-1014-1;60.024;1.0.0.366;1;Chronos;-58291358;Full;3.0.3.80;3.0.3.80;05/04/2021;04/05/2021 08:46;10:46:23;3.0.3.82;2;Chronos;;2;1;2;TESTVV;Generalbloc;;;;pretest;Chronos;16;15;VV_290421/900.png;6;1;16;0;blocVVstim;listVVTrial;;;;Chronos;0;;0;-1;1323775;200;;0;0;0;15;Chronos;0;0;1323975;300;5;1019;1324994;0;15;Chronos;0;0;1324275;0;5;719;1324994;;;;;;;;;;;;;;;;;;;
EXP2.2_290421;1014;1;Chronos;<ChronosDeviceInfo><FriendlyName>MyChronos</FriendlyName><DeviceIndex>1</DeviceIndex><SerialNumber>CHR-04301-1186</SerialNumber><EBNVersion>3.0.3.80</EBNVersion><FirmwareVersion>1.33</FirmwareVersion><APIVersion>1.33</APIVersion><USBHostControllerVersion>2.0</USBHostControllerVersion><USBConnectionRoute>USB#ROOT_HUB20#4&9bd2e8a&0#{f18a0e88-c30c-11d0-8815-00a0c906bed8} + USB#VID_8087&PID_0024#5&3026c139&0&1#{f18a0e88-c30c-11d0-8815-00a0c906bed8}(1) + VID_2266&PID_0007(7)</USBConnectionRoute></ChronosDeviceInfo>;"<?xml version=""1.0""?>\n<Clock xmlns:dt=""urn:schemas-microsoft-com:datatypes""><Description dt:dt=""string"">E-Prime Primary Realtime Clock</Description><StartTime><Timestamp dt:dt=""int"">0</Timestamp><DateUtc dt:dt=""string"">2021-05-04T08:46:23Z</DateUtc></StartTime><FrequencyChanges><FrequencyChange><Frequency dt:dt=""r8"">2435576</Frequency><Timestamp dt:dt=""r8"">21416126515</Timestamp><Current dt:dt=""r8"">0</Current><DateUtc dt:dt=""string"">2021-05-04T08:46:23Z</DateUtc></FrequencyChange></FrequencyChanges></Clock>\n";EXP2.2_290421-1014-1;60.024;1.0.0.366;1;Chronos;-58291358;Full;3.0.3.80;3.0.3.80;05/04/2021;04/05/2021 08:46;10:46:23;3.0.3.82;2;Chronos;;2;1;2;TESTVV;Generalbloc;;;;pretest;Chronos;17;5;VV_290421/920.png;10;1;17;20;blocVVstim;listVVTrial;;;;Chronos;0;;0;-1;1326524;200;;0;0;1;5;Chronos;0;0;1326724;300;5;673;1327397;1;5;Chronos;0;0;1327024;0;5;373;1327397;;;;;;;;;;;;;;;;;;;
EXP2.2_290421;1014;1;Chronos;<ChronosDeviceInfo><FriendlyName>MyChronos</FriendlyName><DeviceIndex>1</DeviceIndex><SerialNumber>CHR-04301-1186</SerialNumber><EBNVersion>3.0.3.80</EBNVersion><FirmwareVersion>1.33</FirmwareVersion><APIVersion>1.33</APIVersion><USBHostControllerVersion>2.0</USBHostControllerVersion><USBConnectionRoute>USB#ROOT_HUB20#4&9bd2e8a&0#{f18a0e88-c30c-11d0-8815-00a0c906bed8} + USB#VID_8087&PID_0024#5&3026c139&0&1#{f18a0e88-c30c-11d0-8815-00a0c906bed8}(1) + VID_2266&PID_0007(7)</USBConnectionRoute></ChronosDeviceInfo>;"<?xml version=""1.0""?>\n<Clock xmlns:dt=""urn:schemas-microsoft-com:datatypes""><Description dt:dt=""string"">E-Prime Primary Realtime Clock</Description><StartTime><Timestamp dt:dt=""int"">0</Timestamp><DateUtc dt:dt=""string"">2021-05-04T08:46:23Z</DateUtc></StartTime><FrequencyChanges><FrequencyChange><Frequency dt:dt=""r8"">2435576</Frequency><Timestamp dt:dt=""r8"">21416126515</Timestamp><Current dt:dt=""r8"">0</Current><DateUtc dt:dt=""string"">2021-05-04T08:46:23Z</DateUtc></FrequencyChange></FrequencyChanges></Clock>\n";EXP2.2_290421-1014-1;60.024;1.0.0.366;1;Chronos;-58291358;Full;3.0.3.80;3.0.3.80;05/04/2021;04/05/2021 08:46;10:46:23;3.0.3.82;2;Chronos;;2;1;2;TESTVV;Generalbloc;;;;pretest;Chronos;18;5;VV_290421/925.png;11;1;18;25;blocVVstim;listVVTrial;;;;Chronos;0;;0;-1;1328923;200;;0;0;1;5;Chronos;0;0;1329123;300;5;533;1329656;1;5;Chronos;0;0;1329423;0;5;233;1329656;;;;;;;;;;;;;;;;;;;
EXP2.2_290421;1014;1;Chronos;<ChronosDeviceInfo><FriendlyName>MyChronos</FriendlyName><DeviceIndex>1</DeviceIndex><SerialNumber>CHR-04301-1186</SerialNumber><EBNVersion>3.0.3.80</EBNVersion><FirmwareVersion>1.33</FirmwareVersion><APIVersion>1.33</APIVersion><USBHostControllerVersion>2.0</USBHostControllerVersion><USBConnectionRoute>USB#ROOT_HUB20#4&9bd2e8a&0#{f18a0e88-c30c-11d0-8815-00a0c906bed8} + USB#VID_8087&PID_0024#5&3026c139&0&1#{f18a0e88-c30c-11d0-8815-00a0c906bed8}(1) + VID_2266&PID_0007(7)</USBConnectionRoute></ChronosDeviceInfo>;"<?xml version=""1.0""?>\n<Clock xmlns:dt=""urn:schemas-microsoft-com:datatypes""><Description dt:dt=""string"">E-Prime Primary Realtime Clock</Description><StartTime><Timestamp dt:dt=""int"">0</Timestamp><DateUtc dt:dt=""string"">2021-05-04T08:46:23Z</DateUtc></StartTime><FrequencyChanges><FrequencyChange><Frequency dt:dt=""r8"">2435576</Frequency><Timestamp dt:dt=""r8"">21416126515</Timestamp><Current dt:dt=""r8"">0</Current><DateUtc dt:dt=""string"">2021-05-04T08:46:23Z</DateUtc></FrequencyChange></FrequencyChanges></Clock>\n";EXP2.2_290421-1014-1;60.024;1.0.0.366;1;Chronos;-58291358;Full;3.0.3.80;3.0.3.80;05/04/2021;04/05/2021 08:46;10:46:23;3.0.3.82;2;Chronos;;2;1;2;TESTVV;Generalbloc;;;;pretest;Chronos;19;1;VV_290421/890.png;4;1;19;-10;blocVVstim;listVVTrial;;;;Chronos;0;;1;-1;1331172;200;;0;0;1;1;Chronos;0;0;1331372;300;1;411;1331783;1;1;Chronos;0;0;1331672;0;1;111;1331783;;;;;;;;;;;;;;;;;;;
EXP2.2_290421;1014;1;Chronos;<ChronosDeviceInfo><FriendlyName>MyChronos</FriendlyName><DeviceIndex>1</DeviceIndex><SerialNumber>CHR-04301-1186</SerialNumber><EBNVersion>3.0.3.80</EBNVersion><FirmwareVersion>1.33</FirmwareVersion><APIVersion>1.33</APIVersion><USBHostControllerVersion>2.0</USBHostControllerVersion><USBConnectionRoute>USB#ROOT_HUB20#4&9bd2e8a&0#{f18a0e88-c30c-11d0-8815-00a0c906bed8} + USB#VID_8087&PID_0024#5&3026c139&0&1#{f18a0e88-c30c-11d0-8815-00a0c906bed8}(1) + VID_2266&PID_0007(7)</USBConnectionRoute></ChronosDeviceInfo>;"<?xml version=""1.0""?>\n<Clock xmlns:dt=""urn:schemas-microsoft-com:datatypes""><Description dt:dt=""string"">E-Prime Primary Realtime Clock</Description><StartTime><Timestamp dt:dt=""int"">0</Timestamp><DateUtc dt:dt=""string"">2021-05-04T08:46:23Z</DateUtc></StartTime><FrequencyChanges><FrequencyChange><Frequency dt:dt=""r8"">2435576</Frequency><Timestamp dt:dt=""r8"">21416126515</Timestamp><Current dt:dt=""r8"">0</Current><DateUtc dt:dt=""string"">2021-05-04T08:46:23Z</DateUtc></FrequencyChange></FrequencyChanges></Clock>\n";EXP2.2_290421-1014-1;60.024;1.0.0.366;1;Chronos;-58291358;Full;3.0.3.80;3.0.3.80;05/04/2021;04/05/2021 08:46;10:46:23;3.0.3.82;2;Chronos;;2;1;2;TESTVV;Generalbloc;;;;pretest;Chronos;20;1;VV_290421/880.png;2;1;20;-20;blocVVstim;listVVTrial;;;;Chronos;0;;0;0;1333305;200;;0;0;1;1;Chronos;0;0;1333505;300;1;842;1334347;1;1;Chronos;0;0;1333805;0;1;542;1334347;;;;;;;;;;;;;;;;;;;
EXP2.2_290421;1014;1;Chronos;<ChronosDeviceInfo><FriendlyName>MyChronos</FriendlyName><DeviceIndex>1</DeviceIndex><SerialNumber>CHR-04301-1186</SerialNumber><EBNVersion>3.0.3.80</EBNVersion><FirmwareVersion>1.33</FirmwareVersion><APIVersion>1.33</APIVersion><USBHostControllerVersion>2.0</USBHostControllerVersion><USBConnectionRoute>USB#ROOT_HUB20#4&9bd2e8a&0#{f18a0e88-c30c-11d0-8815-00a0c906bed8} + USB#VID_8087&PID_0024#5&3026c139&0&1#{f18a0e88-c30c-11d0-8815-00a0c906bed8}(1) + VID_2266&PID_0007(7)</USBConnectionRoute></ChronosDeviceInfo>;"<?xml version=""1.0""?>\n<Clock xmlns:dt=""urn:schemas-microsoft-com:datatypes""><Description dt:dt=""string"">E-Prime Primary Realtime Clock</Description><StartTime><Timestamp dt:dt=""int"">0</Timestamp><DateUtc dt:dt=""string"">2021-05-04T08:46:23Z</DateUtc></StartTime><FrequencyChanges><FrequencyChange><Frequency dt:dt=""r8"">2435576</Frequency><Timestamp dt:dt=""r8"">21416126515</Timestamp><Current dt:dt=""r8"">0</Current><DateUtc dt:dt=""string"">2021-05-04T08:46:23Z</DateUtc></FrequencyChange></FrequencyChanges></Clock>\n";EXP2.2_290421-1014-1;60.024;1.0.0.366;1;Chronos;-58291358;Full;3.0.3.80;3.0.3.80;05/04/2021;04/05/2021 08:46;10:46:23;3.0.3.82;2;Chronos;;2;1;2;TESTVV;Generalbloc;;;;pretest;Chronos;21;5;VV_290421/905.png;7;1;21;5;blocVVstim;listVVTrial;;;;Chronos;0;;0;0;1335871;200;;0;0;0;5;Chronos;0;0;1336071;299;1;707;1336778;0;5;Chronos;1;-1;1336370;0;1;408;1336778;;;;;;;;;;;;;;;;;;;
EXP2.2_290421;1014;1;Chronos;<ChronosDeviceInfo><FriendlyName>MyChronos</FriendlyName><DeviceIndex>1</DeviceIndex><SerialNumber>CHR-04301-1186</SerialNumber><EBNVersion>3.0.3.80</EBNVersion><FirmwareVersion>1.33</FirmwareVersion><APIVersion>1.33</APIVersion><USBHostControllerVersion>2.0</USBHostControllerVersion><USBConnectionRoute>USB#ROOT_HUB20#4&9bd2e8a&0#{f18a0e88-c30c-11d0-8815-00a0c906bed8} + USB#VID_8087&PID_0024#5&3026c139&0&1#{f18a0e88-c30c-11d0-8815-00a0c906bed8}(1) + VID_2266&PID_0007(7)</USBConnectionRoute></ChronosDeviceInfo>;"<?xml version=""1.0""?>\n<Clock xmlns:dt=""urn:schemas-microsoft-com:datatypes""><Description dt:dt=""string"">E-Prime Primary Realtime Clock</Description><StartTime><Timestamp dt:dt=""int"">0</Timestamp><DateUtc dt:dt=""string"">2021-05-04T08:46:23Z</DateUtc></StartTime><FrequencyChanges><FrequencyChange><Frequency dt:dt=""r8"">2435576</Frequency><Timestamp dt:dt=""r8"">21416126515</Timestamp><Current dt:dt=""r8"">0</Current><DateUtc dt:dt=""string"">2021-05-04T08:46:23Z</DateUtc></FrequencyChange></FrequencyChanges></Clock>\n";EXP2.2_290421-1014-1;60.024;1.0.0.366;1;Chronos;-58291358;Full;3.0.3.80;3.0.3.80;05/04/2021;04/05/2021 08:46;10:46:23;3.0.3.82;2;Chronos;;2;1;2;TESTVV;Generalbloc;;;;pretest;Chronos;22;1;VV_290421/875.png;1;1;22;-25;blocVVstim;listVVTrial;;;;Chronos;0;;0;-1;1338303;200;;0;0;1;1;Chronos;0;0;1338503;300;1;790;1339293;1;1;Chronos;0;0;1338803;0;1;490;1339293;;;;;;;;;;;;;;;;;;;
EXP2.2_290421;1014;1;Chronos;<ChronosDeviceInfo><FriendlyName>MyChronos</FriendlyName><DeviceIndex>1</DeviceIndex><SerialNumber>CHR-04301-1186</SerialNumber><EBNVersion>3.0.3.80</EBNVersion><FirmwareVersion>1.33</FirmwareVersion><APIVersion>1.33</APIVersion><USBHostControllerVersion>2.0</USBHostControllerVersion><USBConnectionRoute>USB#ROOT_HUB20#4&9bd2e8a&0#{f18a0e88-c30c-11d0-8815-00a0c906bed8} + USB#VID_8087&PID_0024#5&3026c139&0&1#{f18a0e88-c30c-11d0-8815-00a0c906bed8}(1) + VID_2266&PID_0007(7)</USBConnectionRoute></ChronosDeviceInfo>;"<?xml version=""1.0""?>\n<Clock xmlns:dt=""urn:schemas-microsoft-com:datatypes""><Description dt:dt=""string"">E-Prime Primary Realtime Clock</Description><StartTime><Timestamp dt:dt=""int"">0</Timestamp><DateUtc dt:dt=""string"">2021-05-04T08:46:23Z</DateUtc></StartTime><FrequencyChanges><FrequencyChange><Frequency dt:dt=""r8"">2435576</Frequency><Timestamp dt:dt=""r8"">21416126515</Timestamp><Current dt:dt=""r8"">0</Current><DateUtc dt:dt=""string"">2021-05-04T08:46:23Z</DateUtc></FrequencyChange></FrequencyChanges></Clock>\n";EXP2.2_290421-1014-1;60.024;1.0.0.366;1;Chronos;-58291358;Full;3.0.3.80;3.0.3.80;05/04/2021;04/05/2021 08:46;10:46:23;3.0.3.82;2;Chronos;;2;1;2;TESTVV;Generalbloc;;;;pretest;Chronos;23;1;VV_290421/885.png;3;1;23;-15;blocVVstim;listVVTrial;;;;Chronos;0;;0;0;1340819;200;;0;0;1;1;Chronos;0;0;1341019;300;1;635;1341654;1;1;Chronos;0;0;1341319;0;1;335;1341654;;;;;;;;;;;;;;;;;;;
EXP2.2_290421;1014;1;Chronos;<ChronosDeviceInfo><FriendlyName>MyChronos</FriendlyName><DeviceIndex>1</DeviceIndex><SerialNumber>CHR-04301-1186</SerialNumber><EBNVersion>3.0.3.80</EBNVersion><FirmwareVersion>1.33</FirmwareVersion><APIVersion>1.33</APIVersion><USBHostControllerVersion>2.0</USBHostControllerVersion><USBConnectionRoute>USB#ROOT_HUB20#4&9bd2e8a&0#{f18a0e88-c30c-11d0-8815-00a0c906bed8} + USB#VID_8087&PID_0024#5&3026c139&0&1#{f18a0e88-c30c-11d0-8815-00a0c906bed8}(1) + VID_2266&PID_0007(7)</USBConnectionRoute></ChronosDeviceInfo>;"<?xml version=""1.0""?>\n<Clock xmlns:dt=""urn:schemas-microsoft-com:datatypes""><Description dt:dt=""string"">E-Prime Primary Realtime Clock</Description><StartTime><Timestamp dt:dt=""int"">0</Timestamp><DateUtc dt:dt=""string"">2021-05-04T08:46:23Z</DateUtc></StartTime><FrequencyChanges><FrequencyChange><Frequency dt:dt=""r8"">2435576</Frequency><Timestamp dt:dt=""r8"">21416126515</Timestamp><Current dt:dt=""r8"">0</Current><DateUtc dt:dt=""string"">2021-05-04T08:46:23Z</DateUtc></FrequencyChange></FrequencyChanges></Clock>\n";EXP2.2_290421-1014-1;60.024;1.0.0.366;1;Chronos;-58291358;Full;3.0.3.80;3.0.3.80;05/04/2021;04/05/2021 08:46;10:46:23;3.0.3.82;2;Chronos;;2;1;2;TESTVV;Generalbloc;;;;pretest;Chronos;24;15;VV_290421/900.png;6;1;24;0;blocVVstim;listVVTrial;;;;Chronos;0;;0;0;1343185;200;;0;0;0;15;Chronos;0;0;1343385;299;1;597;1343982;0;15;Chronos;1;-1;1343684;0;1;298;1343982;;;;;;;;;;;;;;;;;;;
EXP2.2_290421;1014;1;Chronos;<ChronosDeviceInfo><FriendlyName>MyChronos</FriendlyName><DeviceIndex>1</DeviceIndex><SerialNumber>CHR-04301-1186</SerialNumber><EBNVersion>3.0.3.80</EBNVersion><FirmwareVersion>1.33</FirmwareVersion><APIVersion>1.33</APIVersion><USBHostControllerVersion>2.0</USBHostControllerVersion><USBConnectionRoute>USB#ROOT_HUB20#4&9bd2e8a&0#{f18a0e88-c30c-11d0-8815-00a0c906bed8} + USB#VID_8087&PID_0024#5&3026c139&0&1#{f18a0e88-c30c-11d0-8815-00a0c906bed8}(1) + VID_2266&PID_0007(7)</USBConnectionRoute></ChronosDeviceInfo>;"<?xml version=""1.0""?>\n<Clock xmlns:dt=""urn:schemas-microsoft-com:datatypes""><Description dt:dt=""string"">E-Prime Primary Realtime Clock</Description><StartTime><Timestamp dt:dt=""int"">0</Timestamp><DateUtc dt:dt=""string"">2021-05-04T08:46:23Z</DateUtc></StartTime><FrequencyChanges><FrequencyChange><Frequency dt:dt=""r8"">2435576</Frequency><Timestamp dt:dt=""r8"">21416126515</Timestamp><Current dt:dt=""r8"">0</Current><DateUtc dt:dt=""string"">2021-05-04T08:46:23Z</DateUtc></FrequencyChange></FrequencyChanges></Clock>\n";EXP2.2_290421-1014-1;60.024;1.0.0.366;1;Chronos;-58291358;Full;3.0.3.80;3.0.3.80;05/04/2021;04/05/2021 08:46;10:46:23;3.0.3.82;2;Chronos;;2;1;2;TESTVV;Generalbloc;;;;pretest;Chronos;25;5;VV_290421/915.png;9;1;25;15;blocVVstim;listVVTrial;;;;Chronos;0;;0;-1;1345500;200;;0;0;1;5;Chronos;0;0;1345700;300;5;632;1346332;1;5;Chronos;0;0;1346000;0;5;332;1346332;;;;;;;;;;;;;;;;;;;
EXP2.2_290421;1014;1;Chronos;<ChronosDeviceInfo><FriendlyName>MyChronos</FriendlyName><DeviceIndex>1</DeviceIndex><SerialNumber>CHR-04301-1186</SerialNumber><EBNVersion>3.0.3.80</EBNVersion><FirmwareVersion>1.33</FirmwareVersion><APIVersion>1.33</APIVersion><USBHostControllerVersion>2.0</USBHostControllerVersion><USBConnectionRoute>USB#ROOT_HUB20#4&9bd2e8a&0#{f18a0e88-c30c-11d0-8815-00a0c906bed8} + USB#VID_8087&PID_0024#5&3026c139&0&1#{f18a0e88-c30c-11d0-8815-00a0c906bed8}(1) + VID_2266&PID_0007(7)</USBConnectionRoute></ChronosDeviceInfo>;"<?xml version=""1.0""?>\n<Clock xmlns:dt=""urn:schemas-microsoft-com:datatypes""><Description dt:dt=""string"">E-Prime Primary Realtime Clock</Description><StartTime><Timestamp dt:dt=""int"">0</Timestamp><DateUtc dt:dt=""string"">2021-05-04T08:46:23Z</DateUtc></StartTime><FrequencyChanges><FrequencyChange><Frequency dt:dt=""r8"">2435576</Frequency><Timestamp dt:dt=""r8"">21416126515</Timestamp><Current dt:dt=""r8"">0</Current><DateUtc dt:dt=""string"">2021-05-04T08:46:23Z</DateUtc></FrequencyChange></FrequencyChanges></Clock>\n";EXP2.2_290421-1014-1;60.024;1.0.0.366;1;Chronos;-58291358;Full;3.0.3.80;3.0.3.80;05/04/2021;04/05/2021 08:46;10:46:23;3.0.3.82;2;Chronos;;2;1;2;TESTVV;Generalbloc;;;;pretest;Chronos;26;5;VV_290421/925.png;11;1;26;25;blocVVstim;listVVTrial;;;;Chronos;0;;1;-1;1347849;200;;0;0;1;5;Chronos;1;0;1348049;300;5;454;1348503;1;5;Chronos;0;0;1348349;0;5;154;1348503;;;;;;;;;;;;;;;;;;;
EXP2.2_290421;1014;1;Chronos;<ChronosDeviceInfo><FriendlyName>MyChronos</FriendlyName><DeviceIndex>1</DeviceIndex><SerialNumber>CHR-04301-1186</SerialNumber><EBNVersion>3.0.3.80</EBNVersion><FirmwareVersion>1.33</FirmwareVersion><APIVersion>1.33</APIVersion><USBHostControllerVersion>2.0</USBHostControllerVersion><USBConnectionRoute>USB#ROOT_HUB20#4&9bd2e8a&0#{f18a0e88-c30c-11d0-8815-00a0c906bed8} + USB#VID_8087&PID_0024#5&3026c139&0&1#{f18a0e88-c30c-11d0-8815-00a0c906bed8}(1) + VID_2266&PID_0007(7)</USBConnectionRoute></ChronosDeviceInfo>;"<?xml version=""1.0""?>\n<Clock xmlns:dt=""urn:schemas-microsoft-com:datatypes""><Description dt:dt=""string"">E-Prime Primary Realtime Clock</Description><StartTime><Timestamp dt:dt=""int"">0</Timestamp><DateUtc dt:dt=""string"">2021-05-04T08:46:23Z</DateUtc></StartTime><FrequencyChanges><FrequencyChange><Frequency dt:dt=""r8"">2435576</Frequency><Timestamp dt:dt=""r8"">21416126515</Timestamp><Current dt:dt=""r8"">0</Current><DateUtc dt:dt=""string"">2021-05-04T08:46:23Z</DateUtc></FrequencyChange></FrequencyChanges></Clock>\n";EXP2.2_290421-1014-1;60.024;1.0.0.366;1;Chronos;-58291358;Full;3.0.3.80;3.0.3.80;05/04/2021;04/05/2021 08:46;10:46:23;3.0.3.82;2;Chronos;;2;1;2;TESTVV;Generalbloc;;;;pretest;Chronos;27;1;VV_290421/885.png;3;1;27;-15;blocVVstim;listVVTrial;;;;Chronos;0;;0;-1;1350032;200;;0;0;1;1;Chronos;0;0;1350232;300;1;388;1350620;1;1;Chronos;0;0;1350532;0;1;88;1350620;;;;;;;;;;;;;;;;;;;
EXP2.2_290421;1014;1;Chronos;<ChronosDeviceInfo><FriendlyName>MyChronos</FriendlyName><DeviceIndex>1</DeviceIndex><SerialNumber>CHR-04301-1186</SerialNumber><EBNVersion>3.0.3.80</EBNVersion><FirmwareVersion>1.33</FirmwareVersion><APIVersion>1.33</APIVersion><USBHostControllerVersion>2.0</USBHostControllerVersion><USBConnectionRoute>USB#ROOT_HUB20#4&9bd2e8a&0#{f18a0e88-c30c-11d0-8815-00a0c906bed8} + USB#VID_8087&PID_0024#5&3026c139&0&1#{f18a0e88-c30c-11d0-8815-00a0c906bed8}(1) + VID_2266&PID_0007(7)</USBConnectionRoute></ChronosDeviceInfo>;"<?xml version=""1.0""?>\n<Clock xmlns:dt=""urn:schemas-microsoft-com:datatypes""><Description dt:dt=""string"">E-Prime Primary Realtime Clock</Description><StartTime><Timestamp dt:dt=""int"">0</Timestamp><DateUtc dt:dt=""string"">2021-05-04T08:46:23Z</DateUtc></StartTime><FrequencyChanges><FrequencyChange><Frequency dt:dt=""r8"">2435576</Frequency><Timestamp dt:dt=""r8"">21416126515</Timestamp><Current dt:dt=""r8"">0</Current><DateUtc dt:dt=""string"">2021-05-04T08:46:23Z</DateUtc></FrequencyChange></FrequencyChanges></Clock>\n";EXP2.2_290421-1014-1;60.024;1.0.0.366;1;Chronos;-58291358;Full;3.0.3.80;3.0.3.80;05/04/2021;04/05/2021 08:46;10:46:23;3.0.3.82;2;Chronos;;2;1;2;TESTVV;Generalbloc;;;;pretest;Chronos;28;1;VV_290421/895.png;5;1;28;-5;blocVVstim;listVVTrial;;;;Chronos;0;;0;-1;1352131;200;;0;0;1;1;Chronos;0;0;1352331;300;1;617;1352948;1;1;Chronos;0;0;1352631;0;1;317;1352948;;;;;;;;;;;;;;;;;;;
EXP2.2_290421;1014;1;Chronos;<ChronosDeviceInfo><FriendlyName>MyChronos</FriendlyName><DeviceIndex>1</DeviceIndex><SerialNumber>CHR-04301-1186</SerialNumber><EBNVersion>3.0.3.80</EBNVersion><FirmwareVersion>1.33</FirmwareVersion><APIVersion>1.33</APIVersion><USBHostControllerVersion>2.0</USBHostControllerVersion><USBConnectionRoute>USB#ROOT_HUB20#4&9bd2e8a&0#{f18a0e88-c30c-11d0-8815-00a0c906bed8} + USB#VID_8087&PID_0024#5&3026c139&0&1#{f18a0e88-c30c-11d0-8815-00a0c906bed8}(1) + VID_2266&PID_0007(7)</USBConnectionRoute></ChronosDeviceInfo>;"<?xml version=""1.0""?>\n<Clock xmlns:dt=""urn:schemas-microsoft-com:datatypes""><Description dt:dt=""string"">E-Prime Primary Realtime Clock</Description><StartTime><Timestamp dt:dt=""int"">0</Timestamp><DateUtc dt:dt=""string"">2021-05-04T08:46:23Z</DateUtc></StartTime><FrequencyChanges><FrequencyChange><Frequency dt:dt=""r8"">2435576</Frequency><Timestamp dt:dt=""r8"">21416126515</Timestamp><Current dt:dt=""r8"">0</Current><DateUtc dt:dt=""string"">2021-05-04T08:46:23Z</DateUtc></FrequencyChange></FrequencyChanges></Clock>\n";EXP2.2_290421-1014-1;60.024;1.0.0.366;1;Chronos;-58291358;Full;3.0.3.80;3.0.3.80;05/04/2021;04/05/2021 08:46;10:46:23;3.0.3.82;2;Chronos;;2;1;2;TESTVV;Generalbloc;;;;pretest;Chronos;29;1;VV_290421/890.png;4;1;29;-10;blocVVstim;listVVTrial;;;;Chronos;0;;0;0;1354464;200;;0;0;1;1;Chronos;0;0;1354664;300;1;632;1355296;1;1;Chronos;0;0;1354964;0;1;332;1355296;;;;;;;;;;;;;;;;;;;
EXP2.2_290421;1014;1;Chronos;<ChronosDeviceInfo><FriendlyName>MyChronos</FriendlyName><DeviceIndex>1</DeviceIndex><SerialNumber>CHR-04301-1186</SerialNumber><EBNVersion>3.0.3.80</EBNVersion><FirmwareVersion>1.33</FirmwareVersion><APIVersion>1.33</APIVersion><USBHostControllerVersion>2.0</USBHostControllerVersion><USBConnectionRoute>USB#ROOT_HUB20#4&9bd2e8a&0#{f18a0e88-c30c-11d0-8815-00a0c906bed8} + USB#VID_8087&PID_0024#5&3026c139&0&1#{f18a0e88-c30c-11d0-8815-00a0c906bed8}(1) + VID_2266&PID_0007(7)</USBConnectionRoute></ChronosDeviceInfo>;"<?xml version=""1.0""?>\n<Clock xmlns:dt=""urn:schemas-microsoft-com:datatypes""><Description dt:dt=""string"">E-Prime Primary Realtime Clock</Description><StartTime><Timestamp dt:dt=""int"">0</Timestamp><DateUtc dt:dt=""string"">2021-05-04T08:46:23Z</DateUtc></StartTime><FrequencyChanges><FrequencyChange><Frequency dt:dt=""r8"">2435576</Frequency><Timestamp dt:dt=""r8"">21416126515</Timestamp><Current dt:dt=""r8"">0</Current><DateUtc dt:dt=""string"">2021-05-04T08:46:23Z</DateUtc></FrequencyChange></FrequencyChanges></Clock>\n";EXP2.2_290421-1014-1;60.024;1.0.0.366;1;Chronos;-58291358;Full;3.0.3.80;3.0.3.80;05/04/2021;04/05/2021 08:46;10:46:23;3.0.3.82;2;Chronos;;2;1;2;TESTVV;Generalbloc;;;;pretest;Chronos;30;5;VV_290421/910.png;8;1;30;10;blocVVstim;listVVTrial;;;;Chronos;0;;0;0;1356813;200;;0;0;1;5;Chronos;0;0;1357013;300;5;687;1357700;1;5;Chronos;0;0;1357313;0;5;387;1357700;;;;;;;;;;;;;;;;;;;
EXP2.2_290421;1014;1;Chronos;<ChronosDeviceInfo><FriendlyName>MyChronos</FriendlyName><DeviceIndex>1</DeviceIndex><SerialNumber>CHR-04301-1186</SerialNumber><EBNVersion>3.0.3.80</EBNVersion><FirmwareVersion>1.33</FirmwareVersion><APIVersion>1.33</APIVersion><USBHostControllerVersion>2.0</USBHostControllerVersion><USBConnectionRoute>USB#ROOT_HUB20#4&9bd2e8a&0#{f18a0e88-c30c-11d0-8815-00a0c906bed8} + USB#VID_8087&PID_0024#5&3026c139&0&1#{f18a0e88-c30c-11d0-8815-00a0c906bed8}(1) + VID_2266&PID_0007(7)</USBConnectionRoute></ChronosDeviceInfo>;"<?xml version=""1.0""?>\n<Clock xmlns:dt=""urn:schemas-microsoft-com:datatypes""><Description dt:dt=""string"">E-Prime Primary Realtime Clock</Description><StartTime><Timestamp dt:dt=""int"">0</Timestamp><DateUtc dt:dt=""string"">2021-05-04T08:46:23Z</DateUtc></StartTime><FrequencyChanges><FrequencyChange><Frequency dt:dt=""r8"">2435576</Frequency><Timestamp dt:dt=""r8"">21416126515</Timestamp><Current dt:dt=""r8"">0</Current><DateUtc dt:dt=""string"">2021-05-04T08:46:23Z</DateUtc></FrequencyChange></FrequencyChanges></Clock>\n";EXP2.2_290421-1014-1;60.024;1.0.0.366;1;Chronos;-58291358;Full;3.0.3.80;3.0.3.80;05/04/2021;04/05/2021 08:46;10:46:23;3.0.3.82;2;Chronos;;2;1;2;TESTVV;Generalbloc;;;;pretest;Chronos;31;5;VV_290421/910.png;8;1;31;10;blocVVstim;listVVTrial;;;;Chronos;0;;0;0;1359229;199;;0;0;1;5;Chronos;1;-1;1359428;300;5;674;1360102;1;5;Chronos;0;0;1359728;0;5;374;1360102;;;;;;;;;;;;;;;;;;;
EXP2.2_290421;1014;1;Chronos;<ChronosDeviceInfo><FriendlyName>MyChronos</FriendlyName><DeviceIndex>1</DeviceIndex><SerialNumber>CHR-04301-1186</SerialNumber><EBNVersion>3.0.3.80</EBNVersion><FirmwareVersion>1.33</FirmwareVersion><APIVersion>1.33</APIVersion><USBHostControllerVersion>2.0</USBHostControllerVersion><USBConnectionRoute>USB#ROOT_HUB20#4&9bd2e8a&0#{f18a0e88-c30c-11d0-8815-00a0c906bed8} + USB#VID_8087&PID_0024#5&3026c139&0&1#{f18a0e88-c30c-11d0-8815-00a0c906bed8}(1) + VID_2266&PID_0007(7)</USBConnectionRoute></ChronosDeviceInfo>;"<?xml version=""1.0""?>\n<Clock xmlns:dt=""urn:schemas-microsoft-com:datatypes""><Description dt:dt=""string"">E-Prime Primary Realtime Clock</Description><StartTime><Timestamp dt:dt=""int"">0</Timestamp><DateUtc dt:dt=""string"">2021-05-04T08:46:23Z</DateUtc></StartTime><FrequencyChanges><FrequencyChange><Frequency dt:dt=""r8"">2435576</Frequency><Timestamp dt:dt=""r8"">21416126515</Timestamp><Current dt:dt=""r8"">0</Current><DateUtc dt:dt=""string"">2021-05-04T08:46:23Z</DateUtc></FrequencyChange></FrequencyChanges></Clock>\n";EXP2.2_290421-1014-1;60.024;1.0.0.366;1;Chronos;-58291358;Full;3.0.3.80;3.0.3.80;05/04/2021;04/05/2021 08:46;10:46:23;3.0.3.82;2;Chronos;;2;1;2;TESTVV;Generalbloc;;;;pretest;Chronos;32;1;VV_290421/875.png;1;1;32;-25;blocVVstim;listVVTrial;;;;Chronos;0;;0;0;1361628;200;;0;0;1;1;Chronos;0;0;1361828;299;1;604;1362432;1;1;Chronos;1;-1;1362127;0;1;305;1362432;;;;;;;;;;;;;;;;;;;
EXP2.2_290421;1014;1;Chronos;<ChronosDeviceInfo><FriendlyName>MyChronos</FriendlyName><DeviceIndex>1</DeviceIndex><SerialNumber>CHR-04301-1186</SerialNumber><EBNVersion>3.0.3.80</EBNVersion><FirmwareVersion>1.33</FirmwareVersion><APIVersion>1.33</APIVersion><USBHostControllerVersion>2.0</USBHostControllerVersion><USBConnectionRoute>USB#ROOT_HUB20#4&9bd2e8a&0#{f18a0e88-c30c-11d0-8815-00a0c906bed8} + USB#VID_8087&PID_0024#5&3026c139&0&1#{f18a0e88-c30c-11d0-8815-00a0c906bed8}(1) + VID_2266&PID_0007(7)</USBConnectionRoute></ChronosDeviceInfo>;"<?xml version=""1.0""?>\n<Clock xmlns:dt=""urn:schemas-microsoft-com:datatypes""><Description dt:dt=""string"">E-Prime Primary Realtime Clock</Description><StartTime><Timestamp dt:dt=""int"">0</Timestamp><DateUtc dt:dt=""string"">2021-05-04T08:46:23Z</DateUtc></StartTime><FrequencyChanges><FrequencyChange><Frequency dt:dt=""r8"">2435576</Frequency><Timestamp dt:dt=""r8"">21416126515</Timestamp><Current dt:dt=""r8"">0</Current><DateUtc dt:dt=""string"">2021-05-04T08:46:23Z</DateUtc></FrequencyChange></FrequencyChanges></Clock>\n";EXP2.2_290421-1014-1;60.024;1.0.0.366;1;Chronos;-58291358;Full;3.0.3.80;3.0.3.80;05/04/2021;04/05/2021 08:46;10:46:23;3.0.3.82;2;Chronos;;2;1;2;TESTVV;Generalbloc;;;;pretest;Chronos;33;1;VV_290421/885.png;3;1;33;-15;blocVVstim;listVVTrial;;;;Chronos;0;;0;-1;1363960;200;;0;0;1;1;Chronos;0;0;1364160;300;1;611;1364771;1;1;Chronos;0;0;1364460;0;1;311;1364771;;;;;;;;;;;;;;;;;;;
EXP2.2_290421;1014;1;Chronos;<ChronosDeviceInfo><FriendlyName>MyChronos</FriendlyName><DeviceIndex>1</DeviceIndex><SerialNumber>CHR-04301-1186</SerialNumber><EBNVersion>3.0.3.80</EBNVersion><FirmwareVersion>1.33</FirmwareVersion><APIVersion>1.33</APIVersion><USBHostControllerVersion>2.0</USBHostControllerVersion><USBConnectionRoute>USB#ROOT_HUB20#4&9bd2e8a&0#{f18a0e88-c30c-11d0-8815-00a0c906bed8} + USB#VID_8087&PID_0024#5&3026c139&0&1#{f18a0e88-c30c-11d0-8815-00a0c906bed8}(1) + VID_2266&PID_0007(7)</USBConnectionRoute></ChronosDeviceInfo>;"<?xml version=""1.0""?>\n<Clock xmlns:dt=""urn:schemas-microsoft-com:datatypes""><Description dt:dt=""string"">E-Prime Primary Realtime Clock</Description><StartTime><Timestamp dt:dt=""int"">0</Timestamp><DateUtc dt:dt=""string"">2021-05-04T08:46:23Z</DateUtc></StartTime><FrequencyChanges><FrequencyChange><Frequency dt:dt=""r8"">2435576</Frequency><Timestamp dt:dt=""r8"">21416126515</Timestamp><Current dt:dt=""r8"">0</Current><DateUtc dt:dt=""string"">2021-05-04T08:46:23Z</DateUtc></FrequencyChange></FrequencyChanges></Clock>\n";EXP2.2_290421-1014-1;60.024;1.0.0.366;1;Chronos;-58291358;Full;3.0.3.80;3.0.3.80;05/04/2021;04/05/2021 08:46;10:46:23;3.0.3.82;2;Chronos;;2;1;2;TESTVV;Generalbloc;;;;pretest;Chronos;34;5;VV_290421/920.png;10;1;34;20;blocVVstim;listVVTrial;;;;Chronos;0;;0;0;1366293;200;;0;0;1;5;Chronos;0;0;1366493;299;5;535;1367028;1;5;Chronos;1;-1;1366792;0;5;236;1367028;;;;;;;;;;;;;;;;;;;
EXP2.2_290421;1014;1;Chronos;<ChronosDeviceInfo><FriendlyName>MyChronos</FriendlyName><DeviceIndex>1</DeviceIndex><SerialNumber>CHR-04301-1186</SerialNumber><EBNVersion>3.0.3.80</EBNVersion><FirmwareVersion>1.33</FirmwareVersion><APIVersion>1.33</APIVersion><USBHostControllerVersion>2.0</USBHostControllerVersion><USBConnectionRoute>USB#ROOT_HUB20#4&9bd2e8a&0#{f18a0e88-c30c-11d0-8815-00a0c906bed8} + USB#VID_8087&PID_0024#5&3026c139&0&1#{f18a0e88-c30c-11d0-8815-00a0c906bed8}(1) + VID_2266&PID_0007(7)</USBConnectionRoute></ChronosDeviceInfo>;"<?xml version=""1.0""?>\n<Clock xmlns:dt=""urn:schemas-microsoft-com:datatypes""><Description dt:dt=""string"">E-Prime Primary Realtime Clock</Description><StartTime><Timestamp dt:dt=""int"">0</Timestamp><DateUtc dt:dt=""string"">2021-05-04T08:46:23Z</DateUtc></StartTime><FrequencyChanges><FrequencyChange><Frequency dt:dt=""r8"">2435576</Frequency><Timestamp dt:dt=""r8"">21416126515</Timestamp><Current dt:dt=""r8"">0</Current><DateUtc dt:dt=""string"">2021-05-04T08:46:23Z</DateUtc></FrequencyChange></FrequencyChanges></Clock>\n";EXP2.2_290421-1014-1;60.024;1.0.0.366;1;Chronos;-58291358;Full;3.0.3.80;3.0.3.80;05/04/2021;04/05/2021 08:46;10:46:23;3.0.3.82;2;Chronos;;2;1;2;TESTVV;Generalbloc;;;;pretest;Chronos;35;5;VV_290421/905.png;7;1;35;5;blocVVstim;listVVTrial;;;;Chronos;0;;0;0;1368542;200;;0;0;0;5;Chronos;0;0;1368742;300;1;908;1369650;0;5;Chronos;0;0;1369042;0;1;608;1369650;;;;;;;;;;;;;;;;;;;
EXP2.2_290421;1014;1;Chronos;<ChronosDeviceInfo><FriendlyName>MyChronos</FriendlyName><DeviceIndex>1</DeviceIndex><SerialNumber>CHR-04301-1186</SerialNumber><EBNVersion>3.0.3.80</EBNVersion><FirmwareVersion>1.33</FirmwareVersion><APIVersion>1.33</APIVersion><USBHostControllerVersion>2.0</USBHostControllerVersion><USBConnectionRoute>USB#ROOT_HUB20#4&9bd2e8a&0#{f18a0e88-c30c-11d0-8815-00a0c906bed8} + USB#VID_8087&PID_0024#5&3026c139&0&1#{f18a0e88-c30c-11d0-8815-00a0c906bed8}(1) + VID_2266&PID_0007(7)</USBConnectionRoute></ChronosDeviceInfo>;"<?xml version=""1.0""?>\n<Clock xmlns:dt=""urn:schemas-microsoft-com:datatypes""><Description dt:dt=""string"">E-Prime Primary Realtime Clock</Description><StartTime><Timestamp dt:dt=""int"">0</Timestamp><DateUtc dt:dt=""string"">2021-05-04T08:46:23Z</DateUtc></StartTime><FrequencyChanges><FrequencyChange><Frequency dt:dt=""r8"">2435576</Frequency><Timestamp dt:dt=""r8"">21416126515</Timestamp><Current dt:dt=""r8"">0</Current><DateUtc dt:dt=""string"">2021-05-04T08:46:23Z</DateUtc></FrequencyChange></FrequencyChanges></Clock>\n";EXP2.2_290421-1014-1;60.024;1.0.0.366;1;Chronos;-58291358;Full;3.0.3.80;3.0.3.80;05/04/2021;04/05/2021 08:46;10:46:23;3.0.3.82;2;Chronos;;2;1;2;TESTVV;Generalbloc;;;;pretest;Chronos;36;5;VV_290421/910.png;8;1;36;10;blocVVstim;listVVTrial;;;;Chronos;0;;0;-1;1371174;200;;0;0;0;5;Chronos;0;0;1371374;300;1;885;1372259;0;5;Chronos;0;0;1371674;0;1;585;1372259;;;;;;;;;;;;;;;;;;;
EXP2.2_290421;1014;1;Chronos;<ChronosDeviceInfo><FriendlyName>MyChronos</FriendlyName><DeviceIndex>1</DeviceIndex><SerialNumber>CHR-04301-1186</SerialNumber><EBNVersion>3.0.3.80</EBNVersion><FirmwareVersion>1.33</FirmwareVersion><APIVersion>1.33</APIVersion><USBHostControllerVersion>2.0</USBHostControllerVersion><USBConnectionRoute>USB#ROOT_HUB20#4&9bd2e8a&0#{f18a0e88-c30c-11d0-8815-00a0c906bed8} + USB#VID_8087&PID_0024#5&3026c139&0&1#{f18a0e88-c30c-11d0-8815-00a0c906bed8}(1) + VID_2266&PID_0007(7)</USBConnectionRoute></ChronosDeviceInfo>;"<?xml version=""1.0""?>\n<Clock xmlns:dt=""urn:schemas-microsoft-com:datatypes""><Description dt:dt=""string"">E-Prime Primary Realtime Clock</Description><StartTime><Timestamp dt:dt=""int"">0</Timestamp><DateUtc dt:dt=""string"">2021-05-04T08:46:23Z</DateUtc></StartTime><FrequencyChanges><FrequencyChange><Frequency dt:dt=""r8"">2435576</Frequency><Timestamp dt:dt=""r8"">21416126515</Timestamp><Current dt:dt=""r8"">0</Current><DateUtc dt:dt=""string"">2021-05-04T08:46:23Z</DateUtc></FrequencyChange></FrequencyChanges></Clock>\n";EXP2.2_290421-1014-1;60.024;1.0.0.366;1;Chronos;-58291358;Full;3.0.3.80;3.0.3.80;05/04/2021;04/05/2021 08:46;10:46:23;3.0.3.82;2;Chronos;;2;1;2;TESTVV;Generalbloc;;;;pretest;Chronos;37;5;VV_290421/915.png;9;1;37;15;blocVVstim;listVVTrial;;;;Chronos;0;;0;-1;1373773;200;;0;0;1;5;Chronos;0;0;1373973;300;5;815;1374788;1;5;Chronos;0;0;1374273;0;5;515;1374788;;;;;;;;;;;;;;;;;;;
EXP2.2_290421;1014;1;Chronos;<ChronosDeviceInfo><FriendlyName>MyChronos</FriendlyName><DeviceIndex>1</DeviceIndex><SerialNumber>CHR-04301-1186</SerialNumber><EBNVersion>3.0.3.80</EBNVersion><FirmwareVersion>1.33</FirmwareVersion><APIVersion>1.33</APIVersion><USBHostControllerVersion>2.0</USBHostControllerVersion><USBConnectionRoute>USB#ROOT_HUB20#4&9bd2e8a&0#{f18a0e88-c30c-11d0-8815-00a0c906bed8} + USB#VID_8087&PID_0024#5&3026c139&0&1#{f18a0e88-c30c-11d0-8815-00a0c906bed8}(1) + VID_2266&PID_0007(7)</USBConnectionRoute></ChronosDeviceInfo>;"<?xml version=""1.0""?>\n<Clock xmlns:dt=""urn:schemas-microsoft-com:datatypes""><Description dt:dt=""string"">E-Prime Primary Realtime Clock</Description><StartTime><Timestamp dt:dt=""int"">0</Timestamp><DateUtc dt:dt=""string"">2021-05-04T08:46:23Z</DateUtc></StartTime><FrequencyChanges><FrequencyChange><Frequency dt:dt=""r8"">2435576</Frequency><Timestamp dt:dt=""r8"">21416126515</Timestamp><Current dt:dt=""r8"">0</Current><DateUtc dt:dt=""string"">2021-05-04T08:46:23Z</DateUtc></FrequencyChange></FrequencyChanges></Clock>\n";EXP2.2_290421-1014-1;60.024;1.0.0.366;1;Chronos;-58291358;Full;3.0.3.80;3.0.3.80;05/04/2021;04/05/2021 08:46;10:46:23;3.0.3.82;2;Chronos;;2;1;2;TESTVV;Generalbloc;;;;pretest;Chronos;38;15;VV_290421/900.png;6;1;38;0;blocVVstim;listVVTrial;;;;Chronos;0;;1;-1;1376305;200;;0;0;0;15;Chronos;1;0;1376505;300;1;885;1377390;0;15;Chronos;0;0;1376805;0;1;585;1377390;;;;;;;;;;;;;;;;;;;
EXP2.2_290421;1014;1;Chronos;<ChronosDeviceInfo><FriendlyName>MyChronos</FriendlyName><DeviceIndex>1</DeviceIndex><SerialNumber>CHR-04301-1186</SerialNumber><EBNVersion>3.0.3.80</EBNVersion><FirmwareVersion>1.33</FirmwareVersion><APIVersion>1.33</APIVersion><USBHostControllerVersion>2.0</USBHostControllerVersion><USBConnectionRoute>USB#ROOT_HUB20#4&9bd2e8a&0#{f18a0e88-c30c-11d0-8815-00a0c906bed8} + USB#VID_8087&PID_0024#5&3026c139&0&1#{f18a0e88-c30c-11d0-8815-00a0c906bed8}(1) + VID_2266&PID_0007(7)</USBConnectionRoute></ChronosDeviceInfo>;"<?xml version=""1.0""?>\n<Clock xmlns:dt=""urn:schemas-microsoft-com:datatypes""><Description dt:dt=""string"">E-Prime Primary Realtime Clock</Description><StartTime><Timestamp dt:dt=""int"">0</Timestamp><DateUtc dt:dt=""string"">2021-05-04T08:46:23Z</DateUtc></StartTime><FrequencyChanges><FrequencyChange><Frequency dt:dt=""r8"">2435576</Frequency><Timestamp dt:dt=""r8"">21416126515</Timestamp><Current dt:dt=""r8"">0</Current><DateUtc dt:dt=""string"">2021-05-04T08:46:23Z</DateUtc></FrequencyChange></FrequencyChanges></Clock>\n";EXP2.2_290421-1014-1;60.024;1.0.0.366;1;Chronos;-58291358;Full;3.0.3.80;3.0.3.80;05/04/2021;04/05/2021 08:46;10:46:23;3.0.3.82;2;Chronos;;2;1;2;TESTVV;Generalbloc;;;;pretest;Chronos;39;15;VV_290421/900.png;6;1;39;0;blocVVstim;listVVTrial;;;;Chronos;0;;0;0;1378905;199;;0;0;0;15;Chronos;1;-1;1379104;300;5;1493;1380597;0;15;Chronos;1;0;1379404;0;5;1193;1380597;;;;;;;;;;;;;;;;;;;
EXP2.2_290421;1014;1;Chronos;<ChronosDeviceInfo><FriendlyName>MyChronos</FriendlyName><DeviceIndex>1</DeviceIndex><SerialNumber>CHR-04301-1186</SerialNumber><EBNVersion>3.0.3.80</EBNVersion><FirmwareVersion>1.33</FirmwareVersion><APIVersion>1.33</APIVersion><USBHostControllerVersion>2.0</USBHostControllerVersion><USBConnectionRoute>USB#ROOT_HUB20#4&9bd2e8a&0#{f18a0e88-c30c-11d0-8815-00a0c906bed8} + USB#VID_8087&PID_0024#5&3026c139&0&1#{f18a0e88-c30c-11d0-8815-00a0c906bed8}(1) + VID_2266&PID_0007(7)</USBConnectionRoute></ChronosDeviceInfo>;"<?xml version=""1.0""?>\n<Clock xmlns:dt=""urn:schemas-microsoft-com:datatypes""><Description dt:dt=""string"">E-Prime Primary Realtime Clock</Description><StartTime><Timestamp dt:dt=""int"">0</Timestamp><DateUtc dt:dt=""string"">2021-05-04T08:46:23Z</DateUtc></StartTime><FrequencyChanges><FrequencyChange><Frequency dt:dt=""r8"">2435576</Frequency><Timestamp dt:dt=""r8"">21416126515</Timestamp><Current dt:dt=""r8"">0</Current><DateUtc dt:dt=""string"">2021-05-04T08:46:23Z</DateUtc></FrequencyChange></FrequencyChanges></Clock>\n";EXP2.2_290421-1014-1;60.024;1.0.0.366;1;Chronos;-58291358;Full;3.0.3.80;3.0.3.80;05/04/2021;04/05/2021 08:46;10:46:23;3.0.3.82;2;Chronos;;2;1;2;TESTVV;Generalbloc;;;;pretest;Chronos;40;1;VV_290421/875.png;1;1;40;-25;blocVVstim;listVVTrial;;;;Chronos;0;;0;-1;1382120;200;;0;0;1;1;Chronos;0;0;1382320;300;1;652;1382972;1;1;Chronos;0;0;1382620;0;1;352;1382972;;;;;;;;;;;;;;;;;;;
EXP2.2_290421;1014;1;Chronos;<ChronosDeviceInfo><FriendlyName>MyChronos</FriendlyName><DeviceIndex>1</DeviceIndex><SerialNumber>CHR-04301-1186</SerialNumber><EBNVersion>3.0.3.80</EBNVersion><FirmwareVersion>1.33</FirmwareVersion><APIVersion>1.33</APIVersion><USBHostControllerVersion>2.0</USBHostControllerVersion><USBConnectionRoute>USB#ROOT_HUB20#4&9bd2e8a&0#{f18a0e88-c30c-11d0-8815-00a0c906bed8} + USB#VID_8087&PID_0024#5&3026c139&0&1#{f18a0e88-c30c-11d0-8815-00a0c906bed8}(1) + VID_2266&PID_0007(7)</USBConnectionRoute></ChronosDeviceInfo>;"<?xml version=""1.0""?>\n<Clock xmlns:dt=""urn:schemas-microsoft-com:datatypes""><Description dt:dt=""string"">E-Prime Primary Realtime Clock</Description><StartTime><Timestamp dt:dt=""int"">0</Timestamp><DateUtc dt:dt=""string"">2021-05-04T08:46:23Z</DateUtc></StartTime><FrequencyChanges><FrequencyChange><Frequency dt:dt=""r8"">2435576</Frequency><Timestamp dt:dt=""r8"">21416126515</Timestamp><Current dt:dt=""r8"">0</Current><DateUtc dt:dt=""string"">2021-05-04T08:46:23Z</DateUtc></FrequencyChange></FrequencyChanges></Clock>\n";EXP2.2_290421-1014-1;60.024;1.0.0.366;1;Chronos;-58291358;Full;3.0.3.80;3.0.3.80;05/04/2021;04/05/2021 08:46;10:46:23;3.0.3.82;2;Chronos;;2;1;2;TESTVV;Generalbloc;;;;pretest;Chronos;41;5;VV_290421/925.png;11;1;41;25;blocVVstim;listVVTrial;;;;Chronos;0;;0;0;1384486;200;;0;0;1;5;Chronos;0;0;1384686;300;5;859;1385545;1;5;Chronos;0;0;1384986;0;5;559;1385545;;;;;;;;;;;;;;;;;;;
EXP2.2_290421;1014;1;Chronos;<ChronosDeviceInfo><FriendlyName>MyChronos</FriendlyName><DeviceIndex>1</DeviceIndex><SerialNumber>CHR-04301-1186</SerialNumber><EBNVersion>3.0.3.80</EBNVersion><FirmwareVersion>1.33</FirmwareVersion><APIVersion>1.33</APIVersion><USBHostControllerVersion>2.0</USBHostControllerVersion><USBConnectionRoute>USB#ROOT_HUB20#4&9bd2e8a&0#{f18a0e88-c30c-11d0-8815-00a0c906bed8} + USB#VID_8087&PID_0024#5&3026c139&0&1#{f18a0e88-c30c-11d0-8815-00a0c906bed8}(1) + VID_2266&PID_0007(7)</USBConnectionRoute></ChronosDeviceInfo>;"<?xml version=""1.0""?>\n<Clock xmlns:dt=""urn:schemas-microsoft-com:datatypes""><Description dt:dt=""string"">E-Prime Primary Realtime Clock</Description><StartTime><Timestamp dt:dt=""int"">0</Timestamp><DateUtc dt:dt=""string"">2021-05-04T08:46:23Z</DateUtc></StartTime><FrequencyChanges><FrequencyChange><Frequency dt:dt=""r8"">2435576</Frequency><Timestamp dt:dt=""r8"">21416126515</Timestamp><Current dt:dt=""r8"">0</Current><DateUtc dt:dt=""string"">2021-05-04T08:46:23Z</DateUtc></FrequencyChange></FrequencyChanges></Clock>\n";EXP2.2_290421-1014-1;60.024;1.0.0.366;1;Chronos;-58291358;Full;3.0.3.80;3.0.3.80;05/04/2021;04/05/2021 08:46;10:46:23;3.0.3.82;2;Chronos;;2;1;2;TESTVV;Generalbloc;;;;pretest;Chronos;42;5;VV_290421/905.png;7;1;42;5;blocVVstim;listVVTrial;;;;Chronos;0;;0;-1;1387068;200;;0;0;0;5;Chronos;0;0;1387268;300;1;1314;1388582;0;5;Chronos;0;0;1387568;0;1;1014;1388582;;;;;;;;;;;;;;;;;;;
EXP2.2_290421;1014;1;Chronos;<ChronosDeviceInfo><FriendlyName>MyChronos</FriendlyName><DeviceIndex>1</DeviceIndex><SerialNumber>CHR-04301-1186</SerialNumber><EBNVersion>3.0.3.80</EBNVersion><FirmwareVersion>1.33</FirmwareVersion><APIVersion>1.33</APIVersion><USBHostControllerVersion>2.0</USBHostControllerVersion><USBConnectionRoute>USB#ROOT_HUB20#4&9bd2e8a&0#{f18a0e88-c30c-11d0-8815-00a0c906bed8} + USB#VID_8087&PID_0024#5&3026c139&0&1#{f18a0e88-c30c-11d0-8815-00a0c906bed8}(1) + VID_2266&PID_0007(7)</USBConnectionRoute></ChronosDeviceInfo>;"<?xml version=""1.0""?>\n<Clock xmlns:dt=""urn:schemas-microsoft-com:datatypes""><Description dt:dt=""string"">E-Prime Primary Realtime Clock</Description><StartTime><Timestamp dt:dt=""int"">0</Timestamp><DateUtc dt:dt=""string"">2021-05-04T08:46:23Z</DateUtc></StartTime><FrequencyChanges><FrequencyChange><Frequency dt:dt=""r8"">2435576</Frequency><Timestamp dt:dt=""r8"">21416126515</Timestamp><Current dt:dt=""r8"">0</Current><DateUtc dt:dt=""string"">2021-05-04T08:46:23Z</DateUtc></FrequencyChange></FrequencyChanges></Clock>\n";EXP2.2_290421-1014-1;60.024;1.0.0.366;1;Chronos;-58291358;Full;3.0.3.80;3.0.3.80;05/04/2021;04/05/2021 08:46;10:46:23;3.0.3.82;2;Chronos;;2;1;2;TESTVV;Generalbloc;;;;pretest;Chronos;43;1;VV_290421/895.png;5;1;43;-5;blocVVstim;listVVTrial;;;;Chronos;0;;0;-1;1390100;200;;0;0;1;1;Chronos;0;0;1390300;300;1;1194;1391494;1;1;Chronos;0;0;1390600;0;1;894;1391494;;;;;;;;;;;;;;;;;;;
EXP2.2_290421;1014;1;Chronos;<ChronosDeviceInfo><FriendlyName>MyChronos</FriendlyName><DeviceIndex>1</DeviceIndex><SerialNumber>CHR-04301-1186</SerialNumber><EBNVersion>3.0.3.80</EBNVersion><FirmwareVersion>1.33</FirmwareVersion><APIVersion>1.33</APIVersion><USBHostControllerVersion>2.0</USBHostControllerVersion><USBConnectionRoute>USB#ROOT_HUB20#4&9bd2e8a&0#{f18a0e88-c30c-11d0-8815-00a0c906bed8} + USB#VID_8087&PID_0024#5&3026c139&0&1#{f18a0e88-c30c-11d0-8815-00a0c906bed8}(1) + VID_2266&PID_0007(7)</USBConnectionRoute></ChronosDeviceInfo>;"<?xml version=""1.0""?>\n<Clock xmlns:dt=""urn:schemas-microsoft-com:datatypes""><Description dt:dt=""string"">E-Prime Primary Realtime Clock</Description><StartTime><Timestamp dt:dt=""int"">0</Timestamp><DateUtc dt:dt=""string"">2021-05-04T08:46:23Z</DateUtc></StartTime><FrequencyChanges><FrequencyChange><Frequency dt:dt=""r8"">2435576</Frequency><Timestamp dt:dt=""r8"">21416126515</Timestamp><Current dt:dt=""r8"">0</Current><DateUtc dt:dt=""string"">2021-05-04T08:46:23Z</DateUtc></FrequencyChange></FrequencyChanges></Clock>\n";EXP2.2_290421-1014-1;60.024;1.0.0.366;1;Chronos;-58291358;Full;3.0.3.80;3.0.3.80;05/04/2021;04/05/2021 08:46;10:46:23;3.0.3.82;2;Chronos;;2;1;2;TESTVV;Generalbloc;;;;pretest;Chronos;44;5;VV_290421/910.png;8;1;44;10;blocVVstim;listVVTrial;;;;Chronos;0;;0;0;1393016;200;;0;0;1;5;Chronos;0;0;1393216;300;5;647;1393863;1;5;Chronos;0;0;1393516;0;5;347;1393863;;;;;;;;;;;;;;;;;;;
EXP2.2_290421;1014;1;Chronos;<ChronosDeviceInfo><FriendlyName>MyChronos</FriendlyName><DeviceIndex>1</DeviceIndex><SerialNumber>CHR-04301-1186</SerialNumber><EBNVersion>3.0.3.80</EBNVersion><FirmwareVersion>1.33</FirmwareVersion><APIVersion>1.33</APIVersion><USBHostControllerVersion>2.0</USBHostControllerVersion><USBConnectionRoute>USB#ROOT_HUB20#4&9bd2e8a&0#{f18a0e88-c30c-11d0-8815-00a0c906bed8} + USB#VID_8087&PID_0024#5&3026c139&0&1#{f18a0e88-c30c-11d0-8815-00a0c906bed8}(1) + VID_2266&PID_0007(7)</USBConnectionRoute></ChronosDeviceInfo>;"<?xml version=""1.0""?>\n<Clock xmlns:dt=""urn:schemas-microsoft-com:datatypes""><Description dt:dt=""string"">E-Prime Primary Realtime Clock</Description><StartTime><Timestamp dt:dt=""int"">0</Timestamp><DateUtc dt:dt=""string"">2021-05-04T08:46:23Z</DateUtc></StartTime><FrequencyChanges><FrequencyChange><Frequency dt:dt=""r8"">2435576</Frequency><Timestamp dt:dt=""r8"">21416126515</Timestamp><Current dt:dt=""r8"">0</Current><DateUtc dt:dt=""string"">2021-05-04T08:46:23Z</DateUtc></FrequencyChange></FrequencyChanges></Clock>\n";EXP2.2_290421-1014-1;60.024;1.0.0.366;1;Chronos;-58291358;Full;3.0.3.80;3.0.3.80;05/04/2021;04/05/2021 08:46;10:46:23;3.0.3.82;2;Chronos;;2;1;2;TESTVV;Generalbloc;;;;pretest;Chronos;45;1;VV_290421/880.png;2;1;45;-20;blocVVstim;listVVTrial;;;;Chronos;0;;0;0;1395382;200;;0;0;1;1;Chronos;0;0;1395582;299;1;533;1396115;1;1;Chronos;1;-1;1395881;0;1;234;1396115;;;;;;;;;;;;;;;;;;;
EXP2.2_290421;1014;1;Chronos;<ChronosDeviceInfo><FriendlyName>MyChronos</FriendlyName><DeviceIndex>1</DeviceIndex><SerialNumber>CHR-04301-1186</SerialNumber><EBNVersion>3.0.3.80</EBNVersion><FirmwareVersion>1.33</FirmwareVersion><APIVersion>1.33</APIVersion><USBHostControllerVersion>2.0</USBHostControllerVersion><USBConnectionRoute>USB#ROOT_HUB20#4&9bd2e8a&0#{f18a0e88-c30c-11d0-8815-00a0c906bed8} + USB#VID_8087&PID_0024#5&3026c139&0&1#{f18a0e88-c30c-11d0-8815-00a0c906bed8}(1) + VID_2266&PID_0007(7)</USBConnectionRoute></ChronosDeviceInfo>;"<?xml version=""1.0""?>\n<Clock xmlns:dt=""urn:schemas-microsoft-com:datatypes""><Description dt:dt=""string"">E-Prime Primary Realtime Clock</Description><StartTime><Timestamp dt:dt=""int"">0</Timestamp><DateUtc dt:dt=""string"">2021-05-04T08:46:23Z</DateUtc></StartTime><FrequencyChanges><FrequencyChange><Frequency dt:dt=""r8"">2435576</Frequency><Timestamp dt:dt=""r8"">21416126515</Timestamp><Current dt:dt=""r8"">0</Current><DateUtc dt:dt=""string"">2021-05-04T08:46:23Z</DateUtc></FrequencyChange></FrequencyChanges></Clock>\n";EXP2.2_290421-1014-1;60.024;1.0.0.366;1;Chronos;-58291358;Full;3.0.3.80;3.0.3.80;05/04/2021;04/05/2021 08:46;10:46:23;3.0.3.82;2;Chronos;;2;1;2;TESTVV;Generalbloc;;;;pretest;Chronos;46;1;VV_290421/875.png;1;1;46;-25;blocVVstim;listVVTrial;;;;Chronos;0;;0;0;1397631;200;;0;0;1;1;Chronos;0;0;1397831;300;1;766;1398597;1;1;Chronos;0;0;1398131;0;1;466;1398597;;;;;;;;;;;;;;;;;;;
EXP2.2_290421;1014;1;Chronos;<ChronosDeviceInfo><FriendlyName>MyChronos</FriendlyName><DeviceIndex>1</DeviceIndex><SerialNumber>CHR-04301-1186</SerialNumber><EBNVersion>3.0.3.80</EBNVersion><FirmwareVersion>1.33</FirmwareVersion><APIVersion>1.33</APIVersion><USBHostControllerVersion>2.0</USBHostControllerVersion><USBConnectionRoute>USB#ROOT_HUB20#4&9bd2e8a&0#{f18a0e88-c30c-11d0-8815-00a0c906bed8} + USB#VID_8087&PID_0024#5&3026c139&0&1#{f18a0e88-c30c-11d0-8815-00a0c906bed8}(1) + VID_2266&PID_0007(7)</USBConnectionRoute></ChronosDeviceInfo>;"<?xml version=""1.0""?>\n<Clock xmlns:dt=""urn:schemas-microsoft-com:datatypes""><Description dt:dt=""string"">E-Prime Primary Realtime Clock</Description><StartTime><Timestamp dt:dt=""int"">0</Timestamp><DateUtc dt:dt=""string"">2021-05-04T08:46:23Z</DateUtc></StartTime><FrequencyChanges><FrequencyChange><Frequency dt:dt=""r8"">2435576</Frequency><Timestamp dt:dt=""r8"">21416126515</Timestamp><Current dt:dt=""r8"">0</Current><DateUtc dt:dt=""string"">2021-05-04T08:46:23Z</DateUtc></FrequencyChange></FrequencyChanges></Clock>\n";EXP2.2_290421-1014-1;60.024;1.0.0.366;1;Chronos;-58291358;Full;3.0.3.80;3.0.3.80;05/04/2021;04/05/2021 08:46;10:46:23;3.0.3.82;2;Chronos;;2;1;2;TESTVV;Generalbloc;;;;pretest;Chronos;47;5;VV_290421/925.png;11;1;47;25;blocVVstim;listVVTrial;;;;Chronos;0;;0;-1;1400113;200;;0;0;1;5;Chronos;0;0;1400313;300;5;759;1401072;1;5;Chronos;0;0;1400613;0;5;459;1401072;;;;;;;;;;;;;;;;;;;
EXP2.2_290421;1014;1;Chronos;<ChronosDeviceInfo><FriendlyName>MyChronos</FriendlyName><DeviceIndex>1</DeviceIndex><SerialNumber>CHR-04301-1186</SerialNumber><EBNVersion>3.0.3.80</EBNVersion><FirmwareVersion>1.33</FirmwareVersion><APIVersion>1.33</APIVersion><USBHostControllerVersion>2.0</USBHostControllerVersion><USBConnectionRoute>USB#ROOT_HUB20#4&9bd2e8a&0#{f18a0e88-c30c-11d0-8815-00a0c906bed8} + USB#VID_8087&PID_0024#5&3026c139&0&1#{f18a0e88-c30c-11d0-8815-00a0c906bed8}(1) + VID_2266&PID_0007(7)</USBConnectionRoute></ChronosDeviceInfo>;"<?xml version=""1.0""?>\n<Clock xmlns:dt=""urn:schemas-microsoft-com:datatypes""><Description dt:dt=""string"">E-Prime Primary Realtime Clock</Description><StartTime><Timestamp dt:dt=""int"">0</Timestamp><DateUtc dt:dt=""string"">2021-05-04T08:46:23Z</DateUtc></StartTime><FrequencyChanges><FrequencyChange><Frequency dt:dt=""r8"">2435576</Frequency><Timestamp dt:dt=""r8"">21416126515</Timestamp><Current dt:dt=""r8"">0</Current><DateUtc dt:dt=""string"">2021-05-04T08:46:23Z</DateUtc></FrequencyChange></FrequencyChanges></Clock>\n";EXP2.2_290421-1014-1;60.024;1.0.0.366;1;Chronos;-58291358;Full;3.0.3.80;3.0.3.80;05/04/2021;04/05/2021 08:46;10:46:23;3.0.3.82;2;Chronos;;2;1;2;TESTVV;Generalbloc;;;;pretest;Chronos;48;1;VV_290421/885.png;3;1;48;-15;blocVVstim;listVVTrial;;;;Chronos;0;;0;0;1402596;200;;0;0;1;1;Chronos;0;0;1402796;299;1;744;1403540;1;1;Chronos;1;-1;1403095;0;1;445;1403540;;;;;;;;;;;;;;;;;;;
EXP2.2_290421;1014;1;Chronos;<ChronosDeviceInfo><FriendlyName>MyChronos</FriendlyName><DeviceIndex>1</DeviceIndex><SerialNumber>CHR-04301-1186</SerialNumber><EBNVersion>3.0.3.80</EBNVersion><FirmwareVersion>1.33</FirmwareVersion><APIVersion>1.33</APIVersion><USBHostControllerVersion>2.0</USBHostControllerVersion><USBConnectionRoute>USB#ROOT_HUB20#4&9bd2e8a&0#{f18a0e88-c30c-11d0-8815-00a0c906bed8} + USB#VID_8087&PID_0024#5&3026c139&0&1#{f18a0e88-c30c-11d0-8815-00a0c906bed8}(1) + VID_2266&PID_0007(7)</USBConnectionRoute></ChronosDeviceInfo>;"<?xml version=""1.0""?>\n<Clock xmlns:dt=""urn:schemas-microsoft-com:datatypes""><Description dt:dt=""string"">E-Prime Primary Realtime Clock</Description><StartTime><Timestamp dt:dt=""int"">0</Timestamp><DateUtc dt:dt=""string"">2021-05-04T08:46:23Z</DateUtc></StartTime><FrequencyChanges><FrequencyChange><Frequency dt:dt=""r8"">2435576</Frequency><Timestamp dt:dt=""r8"">21416126515</Timestamp><Current dt:dt=""r8"">0</Current><DateUtc dt:dt=""string"">2021-05-04T08:46:23Z</DateUtc></FrequencyChange></FrequencyChanges></Clock>\n";EXP2.2_290421-1014-1;60.024;1.0.0.366;1;Chronos;-58291358;Full;3.0.3.80;3.0.3.80;05/04/2021;04/05/2021 08:46;10:46:23;3.0.3.82;2;Chronos;;2;1;2;TESTVV;Generalbloc;;;;pretest;Chronos;49;5;VV_290421/920.png;10;1;49;20;blocVVstim;listVVTrial;;;;Chronos;0;;1;-1;1405061;200;;0;0;1;5;Chronos;0;0;1405261;300;5;777;1406038;1;5;Chronos;0;0;1405561;0;5;477;1406038;;;;;;;;;;;;;;;;;;;
EXP2.2_290421;1014;1;Chronos;<ChronosDeviceInfo><FriendlyName>MyChronos</FriendlyName><DeviceIndex>1</DeviceIndex><SerialNumber>CHR-04301-1186</SerialNumber><EBNVersion>3.0.3.80</EBNVersion><FirmwareVersion>1.33</FirmwareVersion><APIVersion>1.33</APIVersion><USBHostControllerVersion>2.0</USBHostControllerVersion><USBConnectionRoute>USB#ROOT_HUB20#4&9bd2e8a&0#{f18a0e88-c30c-11d0-8815-00a0c906bed8} + USB#VID_8087&PID_0024#5&3026c139&0&1#{f18a0e88-c30c-11d0-8815-00a0c906bed8}(1) + VID_2266&PID_0007(7)</USBConnectionRoute></ChronosDeviceInfo>;"<?xml version=""1.0""?>\n<Clock xmlns:dt=""urn:schemas-microsoft-com:datatypes""><Description dt:dt=""string"">E-Prime Primary Realtime Clock</Description><StartTime><Timestamp dt:dt=""int"">0</Timestamp><DateUtc dt:dt=""string"">2021-05-04T08:46:23Z</DateUtc></StartTime><FrequencyChanges><FrequencyChange><Frequency dt:dt=""r8"">2435576</Frequency><Timestamp dt:dt=""r8"">21416126515</Timestamp><Current dt:dt=""r8"">0</Current><DateUtc dt:dt=""string"">2021-05-04T08:46:23Z</DateUtc></FrequencyChange></FrequencyChanges></Clock>\n";EXP2.2_290421-1014-1;60.024;1.0.0.366;1;Chronos;-58291358;Full;3.0.3.80;3.0.3.80;05/04/2021;04/05/2021 08:46;10:46:23;3.0.3.82;2;Chronos;;2;1;2;TESTVV;Generalbloc;;;;pretest;Chronos;50;15;VV_290421/900.png;6;1;50;0;blocVVstim;listVVTrial;;;;Chronos;0;;1;-1;1407560;200;;0;0;0;15;Chronos;1;0;1407760;300;1;748;1408508;0;15;Chronos;0;0;1408060;0;1;448;1408508;;;;;;;;;;;;;;;;;;;
EXP2.2_290421;1014;1;Chronos;<ChronosDeviceInfo><FriendlyName>MyChronos</FriendlyName><DeviceIndex>1</DeviceIndex><SerialNumber>CHR-04301-1186</SerialNumber><EBNVersion>3.0.3.80</EBNVersion><FirmwareVersion>1.33</FirmwareVersion><APIVersion>1.33</APIVersion><USBHostControllerVersion>2.0</USBHostControllerVersion><USBConnectionRoute>USB#ROOT_HUB20#4&9bd2e8a&0#{f18a0e88-c30c-11d0-8815-00a0c906bed8} + USB#VID_8087&PID_0024#5&3026c139&0&1#{f18a0e88-c30c-11d0-8815-00a0c906bed8}(1) + VID_2266&PID_0007(7)</USBConnectionRoute></ChronosDeviceInfo>;"<?xml version=""1.0""?>\n<Clock xmlns:dt=""urn:schemas-microsoft-com:datatypes""><Description dt:dt=""string"">E-Prime Primary Realtime Clock</Description><StartTime><Timestamp dt:dt=""int"">0</Timestamp><DateUtc dt:dt=""string"">2021-05-04T08:46:23Z</DateUtc></StartTime><FrequencyChanges><FrequencyChange><Frequency dt:dt=""r8"">2435576</Frequency><Timestamp dt:dt=""r8"">21416126515</Timestamp><Current dt:dt=""r8"">0</Current><DateUtc dt:dt=""string"">2021-05-04T08:46:23Z</DateUtc></FrequencyChange></FrequencyChanges></Clock>\n";EXP2.2_290421-1014-1;60.024;1.0.0.366;1;Chronos;-58291358;Full;3.0.3.80;3.0.3.80;05/04/2021;04/05/2021 08:46;10:46:23;3.0.3.82;2;Chronos;;2;1;2;TESTVV;Generalbloc;;;;pretest;Chronos;51;1;VV_290421/880.png;2;1;51;-20;blocVVstim;listVVTrial;;;;Chronos;0;;0;-1;1410026;200;;0;0;1;1;Chronos;0;0;1410226;300;1;769;1410995;1;1;Chronos;0;0;1410526;0;1;469;1410995;;;;;;;;;;;;;;;;;;;
EXP2.2_290421;1014;1;Chronos;<ChronosDeviceInfo><FriendlyName>MyChronos</FriendlyName><DeviceIndex>1</DeviceIndex><SerialNumber>CHR-04301-1186</SerialNumber><EBNVersion>3.0.3.80</EBNVersion><FirmwareVersion>1.33</FirmwareVersion><APIVersion>1.33</APIVersion><USBHostControllerVersion>2.0</USBHostControllerVersion><USBConnectionRoute>USB#ROOT_HUB20#4&9bd2e8a&0#{f18a0e88-c30c-11d0-8815-00a0c906bed8} + USB#VID_8087&PID_0024#5&3026c139&0&1#{f18a0e88-c30c-11d0-8815-00a0c906bed8}(1) + VID_2266&PID_0007(7)</USBConnectionRoute></ChronosDeviceInfo>;"<?xml version=""1.0""?>\n<Clock xmlns:dt=""urn:schemas-microsoft-com:datatypes""><Description dt:dt=""string"">E-Prime Primary Realtime Clock</Description><StartTime><Timestamp dt:dt=""int"">0</Timestamp><DateUtc dt:dt=""string"">2021-05-04T08:46:23Z</DateUtc></StartTime><FrequencyChanges><FrequencyChange><Frequency dt:dt=""r8"">2435576</Frequency><Timestamp dt:dt=""r8"">21416126515</Timestamp><Current dt:dt=""r8"">0</Current><DateUtc dt:dt=""string"">2021-05-04T08:46:23Z</DateUtc></FrequencyChange></FrequencyChanges></Clock>\n";EXP2.2_290421-1014-1;60.024;1.0.0.366;1;Chronos;-58291358;Full;3.0.3.80;3.0.3.80;05/04/2021;04/05/2021 08:46;10:46:23;3.0.3.82;2;Chronos;;2;1;2;TESTVV;Generalbloc;;;;pretest;Chronos;52;1;VV_290421/890.png;4;1;52;-10;blocVVstim;listVVTrial;;;;Chronos;0;;0;0;1412509;200;;0;0;1;1;Chronos;0;0;1412709;299;1;1072;1413781;1;1;Chronos;1;-1;1413008;0;1;773;1413781;;;;;;;;;;;;;;;;;;;
EXP2.2_290421;1014;1;Chronos;<ChronosDeviceInfo><FriendlyName>MyChronos</FriendlyName><DeviceIndex>1</DeviceIndex><SerialNumber>CHR-04301-1186</SerialNumber><EBNVersion>3.0.3.80</EBNVersion><FirmwareVersion>1.33</FirmwareVersion><APIVersion>1.33</APIVersion><USBHostControllerVersion>2.0</USBHostControllerVersion><USBConnectionRoute>USB#ROOT_HUB20#4&9bd2e8a&0#{f18a0e88-c30c-11d0-8815-00a0c906bed8} + USB#VID_8087&PID_0024#5&3026c139&0&1#{f18a0e88-c30c-11d0-8815-00a0c906bed8}(1) + VID_2266&PID_0007(7)</USBConnectionRoute></ChronosDeviceInfo>;"<?xml version=""1.0""?>\n<Clock xmlns:dt=""urn:schemas-microsoft-com:datatypes""><Description dt:dt=""string"">E-Prime Primary Realtime Clock</Description><StartTime><Timestamp dt:dt=""int"">0</Timestamp><DateUtc dt:dt=""string"">2021-05-04T08:46:23Z</DateUtc></StartTime><FrequencyChanges><FrequencyChange><Frequency dt:dt=""r8"">2435576</Frequency><Timestamp dt:dt=""r8"">21416126515</Timestamp><Current dt:dt=""r8"">0</Current><DateUtc dt:dt=""string"">2021-05-04T08:46:23Z</DateUtc></FrequencyChange></FrequencyChanges></Clock>\n";EXP2.2_290421-1014-1;60.024;1.0.0.366;1;Chronos;-58291358;Full;3.0.3.80;3.0.3.80;05/04/2021;04/05/2021 08:46;10:46:23;3.0.3.82;2;Chronos;;2;1;2;TESTVV;Generalbloc;;;;pretest;Chronos;53;1;VV_290421/895.png;5;1;53;-5;blocVVstim;listVVTrial;;;;Chronos;0;;0;0;1415308;199;;0;0;1;1;Chronos;1;-1;1415507;300;1;976;1416483;1;1;Chronos;1;0;1415807;0;1;676;1416483;;;;;;;;;;;;;;;;;;;
EXP2.2_290421;1014;1;Chronos;<ChronosDeviceInfo><FriendlyName>MyChronos</FriendlyName><DeviceIndex>1</DeviceIndex><SerialNumber>CHR-04301-1186</SerialNumber><EBNVersion>3.0.3.80</EBNVersion><FirmwareVersion>1.33</FirmwareVersion><APIVersion>1.33</APIVersion><USBHostControllerVersion>2.0</USBHostControllerVersion><USBConnectionRoute>USB#ROOT_HUB20#4&9bd2e8a&0#{f18a0e88-c30c-11d0-8815-00a0c906bed8} + USB#VID_8087&PID_0024#5&3026c139&0&1#{f18a0e88-c30c-11d0-8815-00a0c906bed8}(1) + VID_2266&PID_0007(7)</USBConnectionRoute></ChronosDeviceInfo>;"<?xml version=""1.0""?>\n<Clock xmlns:dt=""urn:schemas-microsoft-com:datatypes""><Description dt:dt=""string"">E-Prime Primary Realtime Clock</Description><StartTime><Timestamp dt:dt=""int"">0</Timestamp><DateUtc dt:dt=""string"">2021-05-04T08:46:23Z</DateUtc></StartTime><FrequencyChanges><FrequencyChange><Frequency dt:dt=""r8"">2435576</Frequency><Timestamp dt:dt=""r8"">21416126515</Timestamp><Current dt:dt=""r8"">0</Current><DateUtc dt:dt=""string"">2021-05-04T08:46:23Z</DateUtc></FrequencyChange></FrequencyChanges></Clock>\n";EXP2.2_290421-1014-1;60.024;1.0.0.366;1;Chronos;-58291358;Full;3.0.3.80;3.0.3.80;05/04/2021;04/05/2021 08:46;10:46:23;3.0.3.82;2;Chronos;;2;1;2;TESTVV;Generalbloc;;;;pretest;Chronos;54;5;VV_290421/915.png;9;1;54;15;blocVVstim;listVVTrial;;;;Chronos;0;;0;0;1418007;199;;0;0;1;5;Chronos;1;-1;1418206;300;5;938;1419144;1;5;Chronos;0;0;1418506;0;5;638;1419144;;;;;;;;;;;;;;;;;;;
EXP2.2_290421;1014;1;Chronos;<ChronosDeviceInfo><FriendlyName>MyChronos</FriendlyName><DeviceIndex>1</DeviceIndex><SerialNumber>CHR-04301-1186</SerialNumber><EBNVersion>3.0.3.80</EBNVersion><FirmwareVersion>1.33</FirmwareVersion><APIVersion>1.33</APIVersion><USBHostControllerVersion>2.0</USBHostControllerVersion><USBConnectionRoute>USB#ROOT_HUB20#4&9bd2e8a&0#{f18a0e88-c30c-11d0-8815-00a0c906bed8} + USB#VID_8087&PID_0024#5&3026c139&0&1#{f18a0e88-c30c-11d0-8815-00a0c906bed8}(1) + VID_2266&PID_0007(7)</USBConnectionRoute></ChronosDeviceInfo>;"<?xml version=""1.0""?>\n<Clock xmlns:dt=""urn:schemas-microsoft-com:datatypes""><Description dt:dt=""string"">E-Prime Primary Realtime Clock</Description><StartTime><Timestamp dt:dt=""int"">0</Timestamp><DateUtc dt:dt=""string"">2021-05-04T08:46:23Z</DateUtc></StartTime><FrequencyChanges><FrequencyChange><Frequency dt:dt=""r8"">2435576</Frequency><Timestamp dt:dt=""r8"">21416126515</Timestamp><Current dt:dt=""r8"">0</Current><DateUtc dt:dt=""string"">2021-05-04T08:46:23Z</DateUtc></FrequencyChange></FrequencyChanges></Clock>\n";EXP2.2_290421-1014-1;60.024;1.0.0.366;1;Chronos;-58291358;Full;3.0.3.80;3.0.3.80;05/04/2021;04/05/2021 08:46;10:46:23;3.0.3.82;2;Chronos;;2;1;2;TESTVV;Generalbloc;;;;pretest;Chronos;55;1;VV_290421/875.png;1;1;55;-25;blocVVstim;listVVTrial;;;;Chronos;0;;0;-1;1420672;200;;0;0;1;1;Chronos;0;0;1420872;300;1;557;1421429;1;1;Chronos;0;0;1421172;0;1;257;1421429;;;;;;;;;;;;;;;;;;;
EXP2.2_290421;1014;1;Chronos;<ChronosDeviceInfo><FriendlyName>MyChronos</FriendlyName><DeviceIndex>1</DeviceIndex><SerialNumber>CHR-04301-1186</SerialNumber><EBNVersion>3.0.3.80</EBNVersion><FirmwareVersion>1.33</FirmwareVersion><APIVersion>1.33</APIVersion><USBHostControllerVersion>2.0</USBHostControllerVersion><USBConnectionRoute>USB#ROOT_HUB20#4&9bd2e8a&0#{f18a0e88-c30c-11d0-8815-00a0c906bed8} + USB#VID_8087&PID_0024#5&3026c139&0&1#{f18a0e88-c30c-11d0-8815-00a0c906bed8}(1) + VID_2266&PID_0007(7)</USBConnectionRoute></ChronosDeviceInfo>;"<?xml version=""1.0""?>\n<Clock xmlns:dt=""urn:schemas-microsoft-com:datatypes""><Description dt:dt=""string"">E-Prime Primary Realtime Clock</Description><StartTime><Timestamp dt:dt=""int"">0</Timestamp><DateUtc dt:dt=""string"">2021-05-04T08:46:23Z</DateUtc></StartTime><FrequencyChanges><FrequencyChange><Frequency dt:dt=""r8"">2435576</Frequency><Timestamp dt:dt=""r8"">21416126515</Timestamp><Current dt:dt=""r8"">0</Current><DateUtc dt:dt=""string"">2021-05-04T08:46:23Z</DateUtc></FrequencyChange></FrequencyChanges></Clock>\n";EXP2.2_290421-1014-1;60.024;1.0.0.366;1;Chronos;-58291358;Full;3.0.3.80;3.0.3.80;05/04/2021;04/05/2021 08:46;10:46:23;3.0.3.82;2;Chronos;;2;1;2;TESTVV;Generalbloc;;;;pretest;Chronos;56;1;VV_290421/885.png;3;1;56;-15;blocVVstim;listVVTrial;;;;Chronos;0;;0;0;1422955;200;;0;0;1;1;Chronos;0;0;1423155;299;1;833;1423988;1;1;Chronos;1;-1;1423454;0;1;534;1423988;;;;;;;;;;;;;;;;;;;
EXP2.2_290421;1014;1;Chronos;<ChronosDeviceInfo><FriendlyName>MyChronos</FriendlyName><DeviceIndex>1</DeviceIndex><SerialNumber>CHR-04301-1186</SerialNumber><EBNVersion>3.0.3.80</EBNVersion><FirmwareVersion>1.33</FirmwareVersion><APIVersion>1.33</APIVersion><USBHostControllerVersion>2.0</USBHostControllerVersion><USBConnectionRoute>USB#ROOT_HUB20#4&9bd2e8a&0#{f18a0e88-c30c-11d0-8815-00a0c906bed8} + USB#VID_8087&PID_0024#5&3026c139&0&1#{f18a0e88-c30c-11d0-8815-00a0c906bed8}(1) + VID_2266&PID_0007(7)</USBConnectionRoute></ChronosDeviceInfo>;"<?xml version=""1.0""?>\n<Clock xmlns:dt=""urn:schemas-microsoft-com:datatypes""><Description dt:dt=""string"">E-Prime Primary Realtime Clock</Description><StartTime><Timestamp dt:dt=""int"">0</Timestamp><DateUtc dt:dt=""string"">2021-05-04T08:46:23Z</DateUtc></StartTime><FrequencyChanges><FrequencyChange><Frequency dt:dt=""r8"">2435576</Frequency><Timestamp dt:dt=""r8"">21416126515</Timestamp><Current dt:dt=""r8"">0</Current><DateUtc dt:dt=""string"">2021-05-04T08:46:23Z</DateUtc></FrequencyChange></FrequencyChanges></Clock>\n";EXP2.2_290421-1014-1;60.024;1.0.0.366;1;Chronos;-58291358;Full;3.0.3.80;3.0.3.80;05/04/2021;04/05/2021 08:46;10:46:23;3.0.3.82;2;Chronos;;2;1;2;TESTVV;Generalbloc;;;;pretest;Chronos;57;5;VV_290421/920.png;10;1;57;20;blocVVstim;listVVTrial;;;;Chronos;0;;0;0;1425504;200;;0;0;1;5;Chronos;0;0;1425704;300;5;1069;1426773;1;5;Chronos;0;0;1426004;0;5;769;1426773;;;;;;;;;;;;;;;;;;;
